"LSL","answer","background","calibration","canvas_backend","compensation","coordinates","count_change","count_cond_loop","count_condition","count_end","count_experiment","count_generate_answer","count_neutral","count_neutral_2","count_neutral_3","count_new_adaptive_init","count_new_calibration_light","count_new_logger","count_new_lsl_start_1","count_new_lsl_stop","count_new_sketchpad","count_new_sketchpad_1","count_new_sketchpad_2","count_sig1","count_sig2","count_sig3","count_sound_generation","count_stimulus","count_tracking","count_trial","count_trial_loop","datetime","depth","description","disable_garbage_collection","experiment_file","experiment_path","font_bold","font_family","font_italic","font_size","font_underline","foreground","form_clicks","form_response","frequency","fullscreen","height","live_row","live_row_cond_loop","live_row_trial_loop","logfile","mod_freq","notifiers","opensesame_codename","opensesame_version","position","repeat_cycle","round_decimals","sound_buf_size","sound_channels","sound_freq","sound_sample_size","start","stop","subject_nr","subject_parity","time_change","time_cond_loop","time_condition","time_end","time_experiment","time_generate_answer","time_neutral","time_neutral_2","time_neutral_3","time_new_adaptive_init","time_new_calibration_light","time_new_logger","time_new_lsl_start_1","time_new_lsl_stop","time_new_sketchpad","time_new_sketchpad_1","time_new_sketchpad_2","time_sig1","time_sig2","time_sig3","time_sound_generation","time_stimulus","time_tracking","time_trial","time_trial_loop","title","uniform_coordinates","width"
"<opensesame_plugins.lsl_start.liblsl.LSL_session object at 0x00000249AF4B3C88>","1","black","[0.0, 0.0]","legacy","0","uniform","0","0","0","0","0","0","0","0","0","0","NA","0","NA","0","0","0","0","0","0","0","0","NA","0","0","0","Wed Nov 17 21:43:37 2021","-6","The main experiment item","yes","experiment.osexp","C:/Users/elus/Demant/+Team OMEXP - Article/ISAAR 2021/Data/experiments","no","mono","no","18","no","white","no","Next","400","no","768","0","0","0","C:/Users/elus/Documents/RecordingLSL_maybefinal/subject-5.csv","5","[<opensesame_plugins.lsl_start.liblsl.LSL_session object at 0x00000249AF4B3C88>]","Kafkaesque Koffka","3.2.7","1","0","2","1024","2","48000","-16","experiment","0","5","odd","NA","9757","9789","NA","5384","14889","11884","12886","13888","NA","NA","14889","NA","NA","9791","7757","10877","12385","13387","14389","10840","11877","NA","10840","10791","New experiment","yes","1024"
"<opensesame_plugins.lsl_start.liblsl.LSL_session object at 0x00000249AF4B3C88>","1","black","[0.0, 0.0]","legacy","0","uniform","1","0","0","0","0","1","1","1","1","0","NA","1","NA","0","0","0","1","1","1","1","1","NA","1","1","0","Wed Nov 17 21:43:37 2021","-6","The main experiment item","yes","experiment.osexp","C:/Users/elus/Demant/+Team OMEXP - Article/ISAAR 2021/Data/experiments","no","mono","no","18","no","white","no","Next","400","no","768","1","0","1","C:/Users/elus/Documents/RecordingLSL_maybefinal/subject-5.csv","5","[<opensesame_plugins.lsl_start.liblsl.LSL_session object at 0x00000249AF4B3C88>]","Kafkaesque Koffka","3.2.7","2","0","2","1024","2","48000","-16","experiment","0","5","odd","NA","9757","9789","NA","5384","19061","16056","17058","18060","NA","NA","19061","NA","NA","9791","7757","15033","16557","17559","18561","14978","16033","14897","14977","10791","New experiment","yes","1024"
"<opensesame_plugins.lsl_start.liblsl.LSL_session object at 0x00000249AF4B3C88>","1","black","[0.0, 0.0]","legacy","0","uniform","2","0","0","0","0","2","2","2","2","0","NA","2","NA","0","0","0","2","2","2","2","2","NA","2","2","0","Wed Nov 17 21:43:37 2021","-6","The main experiment item","yes","experiment.osexp","C:/Users/elus/Demant/+Team OMEXP - Article/ISAAR 2021/Data/experiments","no","mono","no","18","no","white","no","Next","400","no","768","2","0","2","C:/Users/elus/Documents/RecordingLSL_maybefinal/subject-5.csv","5","[<opensesame_plugins.lsl_start.liblsl.LSL_session object at 0x00000249AF4B3C88>]","Kafkaesque Koffka","3.2.7","3","0","2","1024","2","48000","-16","experiment","0","5","odd","NA","9757","9789","NA","5384","23215","20210","21212","22214","NA","NA","23215","NA","NA","9791","7757","19197","20711","21713","22715","19158","20199","19063","19158","10791","New experiment","yes","1024"
"<opensesame_plugins.lsl_start.liblsl.LSL_session object at 0x00000249AF4B3C88>","1","black","[0.0, 0.0]","legacy","0","uniform","3","0","0","0","0","3","3","3","3","0","NA","3","NA","0","0","0","3","3","3","3","3","NA","3","3","0","Wed Nov 17 21:43:37 2021","-7","The main experiment item","yes","experiment.osexp","C:/Users/elus/Demant/+Team OMEXP - Article/ISAAR 2021/Data/experiments","no","mono","no","18","no","white","no","Next","400","no","768","3","0","3","C:/Users/elus/Documents/RecordingLSL_maybefinal/subject-5.csv","5","[<opensesame_plugins.lsl_start.liblsl.LSL_session object at 0x00000249AF4B3C88>]","Kafkaesque Koffka","3.2.7","1","0","2","1024","2","48000","-16","experiment","0","5","odd","NA","9757","9789","NA","5384","27393","24384","25389","26392","NA","NA","27393","NA","NA","9791","7757","23364","24885","25891","26893","23332","24364","23224","23332","10791","New experiment","yes","1024"
"<opensesame_plugins.lsl_start.liblsl.LSL_session object at 0x00000249AF4B3C88>","1","black","[0.0, 0.0]","legacy","0","uniform","4","0","0","0","0","4","4","4","4","0","NA","4","NA","0","0","0","4","4","4","4","4","NA","4","4","0","Wed Nov 17 21:43:37 2021","-7","The main experiment item","yes","experiment.osexp","C:/Users/elus/Demant/+Team OMEXP - Article/ISAAR 2021/Data/experiments","no","mono","no","18","no","white","no","Next","400","no","768","4","0","4","C:/Users/elus/Documents/RecordingLSL_maybefinal/subject-5.csv","5","[<opensesame_plugins.lsl_start.liblsl.LSL_session object at 0x00000249AF4B3C88>]","Kafkaesque Koffka","3.2.7","2","0","2","1024","2","48000","-16","experiment","0","5","odd","NA","9757","9789","NA","5384","31548","28542","29546","30548","NA","NA","31548","NA","NA","9791","7757","27523","29043","30047","31048","27488","28523","27395","27488","10791","New experiment","yes","1024"
"<opensesame_plugins.lsl_start.liblsl.LSL_session object at 0x00000249AF4B3C88>","1","black","[0.0, 0.0]","legacy","0","uniform","5","0","0","0","0","5","5","5","5","0","NA","5","NA","0","0","0","5","5","5","5","5","NA","5","5","0","Wed Nov 17 21:43:37 2021","-7","The main experiment item","yes","experiment.osexp","C:/Users/elus/Demant/+Team OMEXP - Article/ISAAR 2021/Data/experiments","no","mono","no","18","no","white","no","Next","400","no","768","5","0","5","C:/Users/elus/Documents/RecordingLSL_maybefinal/subject-5.csv","5","[<opensesame_plugins.lsl_start.liblsl.LSL_session object at 0x00000249AF4B3C88>]","Kafkaesque Koffka","3.2.7","3","0","2","1024","2","48000","-16","experiment","0","5","odd","NA","9757","9789","NA","5384","35705","32700","33702","34704","NA","NA","35705","NA","NA","9791","7757","31682","33201","34203","35205","31647","32683","31550","31647","10791","New experiment","yes","1024"
"<opensesame_plugins.lsl_start.liblsl.LSL_session object at 0x00000249AF4B3C88>","1","black","[0.0, 0.0]","legacy","0","uniform","6","0","0","0","0","6","6","6","6","0","NA","6","NA","0","0","0","6","6","6","6","6","NA","6","6","0","Wed Nov 17 21:43:37 2021","-8","The main experiment item","yes","experiment.osexp","C:/Users/elus/Demant/+Team OMEXP - Article/ISAAR 2021/Data/experiments","no","mono","no","18","no","white","no","Next","400","no","768","6","0","6","C:/Users/elus/Documents/RecordingLSL_maybefinal/subject-5.csv","5","[<opensesame_plugins.lsl_start.liblsl.LSL_session object at 0x00000249AF4B3C88>]","Kafkaesque Koffka","3.2.7","1","0","2","1024","2","48000","-16","experiment","0","5","odd","NA","9757","9789","NA","5384","39877","36867","37874","38876","NA","NA","39877","NA","NA","9791","7757","35847","37368","38375","39377","35816","36848","35707","35816","10791","New experiment","yes","1024"
"<opensesame_plugins.lsl_start.liblsl.LSL_session object at 0x00000249AF4B3C88>","1","black","[0.0, 0.0]","legacy","0","uniform","7","0","0","0","0","7","7","7","7","0","NA","7","NA","0","0","0","7","7","7","7","7","NA","7","7","0","Wed Nov 17 21:43:37 2021","-8","The main experiment item","yes","experiment.osexp","C:/Users/elus/Demant/+Team OMEXP - Article/ISAAR 2021/Data/experiments","no","mono","no","18","no","white","no","Next","400","no","768","7","0","7","C:/Users/elus/Documents/RecordingLSL_maybefinal/subject-5.csv","5","[<opensesame_plugins.lsl_start.liblsl.LSL_session object at 0x00000249AF4B3C88>]","Kafkaesque Koffka","3.2.7","2","0","2","1024","2","48000","-16","experiment","0","5","odd","NA","9757","9789","NA","5384","44036","41029","42032","43034","NA","NA","44036","NA","NA","9791","7757","40011","41531","42533","43535","39976","41013","39879","39976","10791","New experiment","yes","1024"
"<opensesame_plugins.lsl_start.liblsl.LSL_session object at 0x00000249AF4B3C88>","1","black","[0.0, 0.0]","legacy","0","uniform","8","0","0","0","0","8","8","8","8","0","NA","8","NA","0","0","0","8","8","8","8","8","NA","8","8","0","Wed Nov 17 21:43:37 2021","-8","The main experiment item","yes","experiment.osexp","C:/Users/elus/Demant/+Team OMEXP - Article/ISAAR 2021/Data/experiments","no","mono","no","18","no","white","no","Next","400","no","768","8","0","8","C:/Users/elus/Documents/RecordingLSL_maybefinal/subject-5.csv","5","[<opensesame_plugins.lsl_start.liblsl.LSL_session object at 0x00000249AF4B3C88>]","Kafkaesque Koffka","3.2.7","3","0","2","1024","2","48000","-16","experiment","0","5","odd","NA","9757","9789","NA","5384","48194","45189","46191","47193","NA","NA","48194","NA","NA","9791","7757","44170","45690","46692","47694","44133","45171","44037","44133","10791","New experiment","yes","1024"
"<opensesame_plugins.lsl_start.liblsl.LSL_session object at 0x00000249AF4B3C88>","0","black","[0.0, 0.0]","legacy","0","uniform","9","0","0","0","0","9","9","9","9","0","NA","9","NA","0","0","0","9","9","9","9","9","NA","9","9","0","Wed Nov 17 21:43:37 2021","-9","The main experiment item","yes","experiment.osexp","C:/Users/elus/Demant/+Team OMEXP - Article/ISAAR 2021/Data/experiments","no","mono","no","18","no","white","no","Next","400","no","768","9","0","9","C:/Users/elus/Documents/RecordingLSL_maybefinal/subject-5.csv","5","[<opensesame_plugins.lsl_start.liblsl.LSL_session object at 0x00000249AF4B3C88>]","Kafkaesque Koffka","3.2.7","1","0","2","1024","2","48000","-16","experiment","0","5","odd","NA","9757","9789","NA","5384","52362","49354","50359","51361","NA","NA","52362","NA","NA","9791","7757","48341","49855","50860","51862","48307","49342","48196","48307","10791","New experiment","yes","1024"
"<opensesame_plugins.lsl_start.liblsl.LSL_session object at 0x00000249AF4B3C88>","1","black","[0.0, 0.0]","legacy","0","uniform","10","0","0","0","0","10","10","10","10","0","NA","10","NA","0","0","0","10","10","10","10","10","NA","10","10","0","Wed Nov 17 21:43:37 2021","-8.5","The main experiment item","yes","experiment.osexp","C:/Users/elus/Demant/+Team OMEXP - Article/ISAAR 2021/Data/experiments","no","mono","no","18","no","white","no","Next","400","no","768","10","0","10","C:/Users/elus/Documents/RecordingLSL_maybefinal/subject-5.csv","5","[<opensesame_plugins.lsl_start.liblsl.LSL_session object at 0x00000249AF4B3C88>]","Kafkaesque Koffka","3.2.7","2","0","2","1024","2","48000","-16","experiment","0","5","odd","NA","9757","9789","NA","5384","56535","53530","54532","55534","NA","NA","56535","NA","NA","9791","7757","52512","54031","55033","56035","52479","53513","52370","52479","10791","New experiment","yes","1024"
"<opensesame_plugins.lsl_start.liblsl.LSL_session object at 0x00000249AF4B3C88>","0","black","[0.0, 0.0]","legacy","0","uniform","11","0","0","0","0","11","11","11","11","0","NA","11","NA","0","0","0","11","11","11","11","11","NA","11","11","0","Wed Nov 17 21:43:37 2021","-8.5","The main experiment item","yes","experiment.osexp","C:/Users/elus/Demant/+Team OMEXP - Article/ISAAR 2021/Data/experiments","no","mono","no","18","no","white","no","Next","400","no","768","11","0","11","C:/Users/elus/Documents/RecordingLSL_maybefinal/subject-5.csv","5","[<opensesame_plugins.lsl_start.liblsl.LSL_session object at 0x00000249AF4B3C88>]","Kafkaesque Koffka","3.2.7","3","0","2","1024","2","48000","-16","experiment","0","5","odd","NA","9757","9789","NA","5384","60692","57687","58689","59691","NA","NA","60692","NA","NA","9791","7757","56671","58188","59190","60192","56632","57671","56537","56632","10791","New experiment","yes","1024"
"<opensesame_plugins.lsl_start.liblsl.LSL_session object at 0x00000249AF4B3C88>","1","black","[0.0, 0.0]","legacy","0","uniform","12","0","0","0","0","12","12","12","12","0","NA","12","NA","0","0","0","12","12","12","12","12","NA","12","12","0","Wed Nov 17 21:43:37 2021","-8","The main experiment item","yes","experiment.osexp","C:/Users/elus/Demant/+Team OMEXP - Article/ISAAR 2021/Data/experiments","no","mono","no","18","no","white","no","Next","400","no","768","12","0","12","C:/Users/elus/Documents/RecordingLSL_maybefinal/subject-5.csv","5","[<opensesame_plugins.lsl_start.liblsl.LSL_session object at 0x00000249AF4B3C88>]","Kafkaesque Koffka","3.2.7","1","0","2","1024","2","48000","-16","experiment","0","5","odd","NA","9757","9789","NA","5384","64848","61841","62845","63847","NA","NA","64848","NA","NA","9791","7757","60829","62342","63346","64348","60793","61830","60696","60793","10791","New experiment","yes","1024"
"<opensesame_plugins.lsl_start.liblsl.LSL_session object at 0x00000249AF4B3C88>","0","black","[0.0, 0.0]","legacy","0","uniform","13","0","0","0","0","13","13","13","13","0","NA","13","NA","0","0","0","13","13","13","13","13","NA","13","13","0","Wed Nov 17 21:43:37 2021","-8","The main experiment item","yes","experiment.osexp","C:/Users/elus/Demant/+Team OMEXP - Article/ISAAR 2021/Data/experiments","no","mono","no","18","no","white","no","Next","400","no","768","13","0","13","C:/Users/elus/Documents/RecordingLSL_maybefinal/subject-5.csv","5","[<opensesame_plugins.lsl_start.liblsl.LSL_session object at 0x00000249AF4B3C88>]","Kafkaesque Koffka","3.2.7","2","0","2","1024","2","48000","-16","experiment","0","5","odd","NA","9757","9789","NA","5384","69005","66000","67002","68004","NA","NA","69005","NA","NA","9791","7757","64981","66501","67503","68505","64945","65982","64850","64945","10791","New experiment","yes","1024"
"<opensesame_plugins.lsl_start.liblsl.LSL_session object at 0x00000249AF4B3C88>","1","black","[0.0, 0.0]","legacy","0","uniform","14","0","0","0","0","14","14","14","14","0","NA","14","NA","0","0","0","14","14","14","14","14","NA","14","14","0","Wed Nov 17 21:43:37 2021","-7.5","The main experiment item","yes","experiment.osexp","C:/Users/elus/Demant/+Team OMEXP - Article/ISAAR 2021/Data/experiments","no","mono","no","18","no","white","no","Next","400","no","768","14","0","14","C:/Users/elus/Documents/RecordingLSL_maybefinal/subject-5.csv","5","[<opensesame_plugins.lsl_start.liblsl.LSL_session object at 0x00000249AF4B3C88>]","Kafkaesque Koffka","3.2.7","3","0","2","1024","2","48000","-16","experiment","0","5","odd","NA","9757","9789","NA","5384","73166","70161","71163","72165","NA","NA","73166","NA","NA","9791","7757","69141","70662","71664","72666","69102","70143","69007","69102","10791","New experiment","yes","1024"
"<opensesame_plugins.lsl_start.liblsl.LSL_session object at 0x00000249AF4B3C88>","1","black","[0.0, 0.0]","legacy","0","uniform","15","0","0","0","0","15","15","15","15","0","NA","15","NA","0","0","0","15","15","15","15","15","NA","15","15","0","Wed Nov 17 21:43:37 2021","-7.5","The main experiment item","yes","experiment.osexp","C:/Users/elus/Demant/+Team OMEXP - Article/ISAAR 2021/Data/experiments","no","mono","no","18","no","white","no","Next","400","no","768","15","0","15","C:/Users/elus/Documents/RecordingLSL_maybefinal/subject-5.csv","5","[<opensesame_plugins.lsl_start.liblsl.LSL_session object at 0x00000249AF4B3C88>]","Kafkaesque Koffka","3.2.7","1","0","2","1024","2","48000","-16","experiment","0","5","odd","NA","9757","9789","NA","5384","77319","74312","75316","76318","NA","NA","77319","NA","NA","9791","7757","73299","74813","75817","76819","73264","74301","73168","73264","10791","New experiment","yes","1024"
"<opensesame_plugins.lsl_start.liblsl.LSL_session object at 0x00000249AF4B3C88>","1","black","[0.0, 0.0]","legacy","0","uniform","16","0","0","0","0","16","16","16","16","0","NA","16","NA","0","0","0","16","16","16","16","16","NA","16","16","0","Wed Nov 17 21:43:37 2021","-7.5","The main experiment item","yes","experiment.osexp","C:/Users/elus/Demant/+Team OMEXP - Article/ISAAR 2021/Data/experiments","no","mono","no","18","no","white","no","Next","400","no","768","16","0","16","C:/Users/elus/Documents/RecordingLSL_maybefinal/subject-5.csv","5","[<opensesame_plugins.lsl_start.liblsl.LSL_session object at 0x00000249AF4B3C88>]","Kafkaesque Koffka","3.2.7","2","0","2","1024","2","48000","-16","experiment","0","5","odd","NA","9757","9789","NA","5384","81480","78471","79477","80479","NA","NA","81480","NA","NA","9791","7757","77450","78972","79978","80980","77415","78451","77321","77415","10791","New experiment","yes","1024"
"<opensesame_plugins.lsl_start.liblsl.LSL_session object at 0x00000249AF4B3C88>","1","black","[0.0, 0.0]","legacy","0","uniform","17","0","0","0","0","17","17","17","17","0","NA","17","NA","0","0","0","17","17","17","17","17","NA","17","17","0","Wed Nov 17 21:43:37 2021","-8","The main experiment item","yes","experiment.osexp","C:/Users/elus/Demant/+Team OMEXP - Article/ISAAR 2021/Data/experiments","no","mono","no","18","no","white","no","Next","400","no","768","17","0","17","C:/Users/elus/Documents/RecordingLSL_maybefinal/subject-5.csv","5","[<opensesame_plugins.lsl_start.liblsl.LSL_session object at 0x00000249AF4B3C88>]","Kafkaesque Koffka","3.2.7","3","0","2","1024","2","48000","-16","experiment","0","5","odd","NA","9757","9789","NA","5384","85642","82632","83638","84641","NA","NA","85642","NA","NA","9791","7757","81611","83133","84140","85142","81578","82612","81482","81578","10791","New experiment","yes","1024"
"<opensesame_plugins.lsl_start.liblsl.LSL_session object at 0x00000249AF4B3C88>","1","black","[0.0, 0.0]","legacy","0","uniform","18","0","0","0","0","18","18","18","18","0","NA","18","NA","0","0","0","18","18","18","18","18","NA","18","18","0","Wed Nov 17 21:43:37 2021","-8","The main experiment item","yes","experiment.osexp","C:/Users/elus/Demant/+Team OMEXP - Article/ISAAR 2021/Data/experiments","no","mono","no","18","no","white","no","Next","400","no","768","18","0","18","C:/Users/elus/Documents/RecordingLSL_maybefinal/subject-5.csv","5","[<opensesame_plugins.lsl_start.liblsl.LSL_session object at 0x00000249AF4B3C88>]","Kafkaesque Koffka","3.2.7","1","0","2","1024","2","48000","-16","experiment","0","5","odd","NA","9757","9789","NA","5384","89796","86791","87793","88795","NA","NA","89796","NA","NA","9791","7757","85774","87292","88294","89296","85740","86776","85643","85740","10791","New experiment","yes","1024"
"<opensesame_plugins.lsl_start.liblsl.LSL_session object at 0x00000249AF4B3C88>","1","black","[0.0, 0.0]","legacy","0","uniform","19","0","0","0","0","19","19","19","19","0","NA","19","NA","0","0","0","19","19","19","19","19","NA","19","19","0","Wed Nov 17 21:43:37 2021","-8","The main experiment item","yes","experiment.osexp","C:/Users/elus/Demant/+Team OMEXP - Article/ISAAR 2021/Data/experiments","no","mono","no","18","no","white","no","Next","400","no","768","19","0","19","C:/Users/elus/Documents/RecordingLSL_maybefinal/subject-5.csv","5","[<opensesame_plugins.lsl_start.liblsl.LSL_session object at 0x00000249AF4B3C88>]","Kafkaesque Koffka","3.2.7","2","0","2","1024","2","48000","-16","experiment","0","5","odd","NA","9757","9789","NA","5384","93956","90951","91953","92955","NA","NA","93956","NA","NA","9791","7757","89935","91452","92454","93456","89900","90936","89805","89900","10791","New experiment","yes","1024"
"<opensesame_plugins.lsl_start.liblsl.LSL_session object at 0x00000249AF4B3C88>","1","black","[0.0, 0.0]","legacy","0","uniform","20","0","0","0","0","20","20","20","20","0","NA","20","NA","0","0","0","20","20","20","20","20","NA","20","20","0","Wed Nov 17 21:43:37 2021","-8.5","The main experiment item","yes","experiment.osexp","C:/Users/elus/Demant/+Team OMEXP - Article/ISAAR 2021/Data/experiments","no","mono","no","18","no","white","no","Next","400","no","768","20","0","20","C:/Users/elus/Documents/RecordingLSL_maybefinal/subject-5.csv","5","[<opensesame_plugins.lsl_start.liblsl.LSL_session object at 0x00000249AF4B3C88>]","Kafkaesque Koffka","3.2.7","3","0","2","1024","2","48000","-16","experiment","0","5","odd","NA","9757","9789","NA","5384","98118","95110","96115","97117","NA","NA","98118","NA","NA","9791","7757","94094","95611","96616","97618","94059","95096","93964","94058","10791","New experiment","yes","1024"
"<opensesame_plugins.lsl_start.liblsl.LSL_session object at 0x00000249AF4B3C88>","0","black","[0.0, 0.0]","legacy","0","uniform","21","0","0","0","0","21","21","21","21","0","NA","21","NA","0","0","0","21","21","21","21","21","NA","21","21","0","Wed Nov 17 21:43:37 2021","-8.5","The main experiment item","yes","experiment.osexp","C:/Users/elus/Demant/+Team OMEXP - Article/ISAAR 2021/Data/experiments","no","mono","no","18","no","white","no","Next","400","no","768","21","0","21","C:/Users/elus/Documents/RecordingLSL_maybefinal/subject-5.csv","5","[<opensesame_plugins.lsl_start.liblsl.LSL_session object at 0x00000249AF4B3C88>]","Kafkaesque Koffka","3.2.7","1","0","2","1024","2","48000","-16","experiment","0","5","odd","NA","9757","9789","NA","5384","102274","99267","100271","101273","NA","NA","102274","NA","NA","9791","7757","98251","99768","100772","101774","98218","99251","98122","98217","10791","New experiment","yes","1024"
"<opensesame_plugins.lsl_start.liblsl.LSL_session object at 0x00000249AF4B3C88>","1","black","[0.0, 0.0]","legacy","0","uniform","22","0","0","0","0","22","22","22","22","0","NA","22","NA","0","0","0","22","22","22","22","22","NA","22","22","0","Wed Nov 17 21:43:37 2021","-8","The main experiment item","yes","experiment.osexp","C:/Users/elus/Demant/+Team OMEXP - Article/ISAAR 2021/Data/experiments","no","mono","no","18","no","white","no","Next","400","no","768","22","0","22","C:/Users/elus/Documents/RecordingLSL_maybefinal/subject-5.csv","5","[<opensesame_plugins.lsl_start.liblsl.LSL_session object at 0x00000249AF4B3C88>]","Kafkaesque Koffka","3.2.7","2","0","2","1024","2","48000","-16","experiment","0","5","odd","NA","9757","9789","NA","5384","106429","103421","104426","105428","NA","NA","106429","NA","NA","9791","7757","102407","103922","104927","105929","102370","103408","102276","102370","10791","New experiment","yes","1024"
"<opensesame_plugins.lsl_start.liblsl.LSL_session object at 0x00000249AF4B3C88>","0","black","[0.0, 0.0]","legacy","0","uniform","23","0","0","0","0","23","23","23","23","0","NA","23","NA","0","0","0","23","23","23","23","23","NA","23","23","0","Wed Nov 17 21:43:37 2021","-8","The main experiment item","yes","experiment.osexp","C:/Users/elus/Demant/+Team OMEXP - Article/ISAAR 2021/Data/experiments","no","mono","no","18","no","white","no","Next","400","no","768","23","0","23","C:/Users/elus/Documents/RecordingLSL_maybefinal/subject-5.csv","5","[<opensesame_plugins.lsl_start.liblsl.LSL_session object at 0x00000249AF4B3C88>]","Kafkaesque Koffka","3.2.7","3","0","2","1024","2","48000","-16","experiment","0","5","odd","NA","9757","9789","NA","5384","110580","107572","108577","109579","NA","NA","110580","NA","NA","9791","7757","106559","108073","109078","110080","106524","107561","106431","106524","10791","New experiment","yes","1024"
"<opensesame_plugins.lsl_start.liblsl.LSL_session object at 0x00000249AF4B3C88>","1","black","[0.0, 0.0]","legacy","0","uniform","24","0","0","0","0","24","24","24","24","0","NA","24","NA","0","0","0","24","24","24","24","24","NA","24","24","0","Wed Nov 17 21:43:37 2021","-7.5","The main experiment item","yes","experiment.osexp","C:/Users/elus/Demant/+Team OMEXP - Article/ISAAR 2021/Data/experiments","no","mono","no","18","no","white","no","Next","400","no","768","24","0","24","C:/Users/elus/Documents/RecordingLSL_maybefinal/subject-5.csv","5","[<opensesame_plugins.lsl_start.liblsl.LSL_session object at 0x00000249AF4B3C88>]","Kafkaesque Koffka","3.2.7","1","0","2","1024","2","48000","-16","experiment","0","5","odd","NA","9757","9789","NA","5384","114835","111830","112832","113834","NA","NA","114835","NA","NA","9791","7757","110820","112331","113333","114335","110677","111820","110582","110677","10791","New experiment","yes","1024"
"<opensesame_plugins.lsl_start.liblsl.LSL_session object at 0x00000249AF4B3C88>","1","black","[0.0, 0.0]","legacy","0","uniform","25","0","0","0","0","25","25","25","25","0","NA","25","NA","0","0","0","25","25","25","25","25","NA","25","25","0","Wed Nov 17 21:43:37 2021","-7.5","The main experiment item","yes","experiment.osexp","C:/Users/elus/Demant/+Team OMEXP - Article/ISAAR 2021/Data/experiments","no","mono","no","18","no","white","no","Next","400","no","768","25","0","25","C:/Users/elus/Documents/RecordingLSL_maybefinal/subject-5.csv","5","[<opensesame_plugins.lsl_start.liblsl.LSL_session object at 0x00000249AF4B3C88>]","Kafkaesque Koffka","3.2.7","2","0","2","1024","2","48000","-16","experiment","0","5","odd","NA","9757","9789","NA","5384","118955","115950","116952","117954","NA","NA","118955","NA","NA","9791","7757","114941","116451","117453","118455","114915","115941","114837","114915","10791","New experiment","yes","1024"
"<opensesame_plugins.lsl_start.liblsl.LSL_session object at 0x00000249AF4B3C88>","1","black","[0.0, 0.0]","legacy","0","uniform","26","0","0","0","0","26","26","26","26","0","NA","26","NA","0","0","0","26","26","26","26","26","NA","26","26","0","Wed Nov 17 21:43:37 2021","-7.5","The main experiment item","yes","experiment.osexp","C:/Users/elus/Demant/+Team OMEXP - Article/ISAAR 2021/Data/experiments","no","mono","no","18","no","white","no","Next","400","no","768","26","0","26","C:/Users/elus/Documents/RecordingLSL_maybefinal/subject-5.csv","5","[<opensesame_plugins.lsl_start.liblsl.LSL_session object at 0x00000249AF4B3C88>]","Kafkaesque Koffka","3.2.7","3","0","2","1024","2","48000","-16","experiment","0","5","odd","NA","9757","9789","NA","5384","123085","120080","121082","122084","NA","NA","123085","NA","NA","9791","7757","119066","120581","121583","122585","119036","120066","118959","119036","10791","New experiment","yes","1024"
"<opensesame_plugins.lsl_start.liblsl.LSL_session object at 0x00000249AF4B3C88>","1","black","[0.0, 0.0]","legacy","0","uniform","27","0","0","0","0","27","27","27","27","0","NA","27","NA","0","0","0","27","27","27","27","27","NA","27","27","0","Wed Nov 17 21:43:37 2021","-8","The main experiment item","yes","experiment.osexp","C:/Users/elus/Demant/+Team OMEXP - Article/ISAAR 2021/Data/experiments","no","mono","no","18","no","white","no","Next","400","no","768","27","0","27","C:/Users/elus/Documents/RecordingLSL_maybefinal/subject-5.csv","5","[<opensesame_plugins.lsl_start.liblsl.LSL_session object at 0x00000249AF4B3C88>]","Kafkaesque Koffka","3.2.7","1","0","2","1024","2","48000","-16","experiment","0","5","odd","NA","9757","9789","NA","5384","127206","124201","125203","126205","NA","NA","127206","NA","NA","9791","7757","123192","124702","125704","126706","123164","124192","123087","123164","10791","New experiment","yes","1024"
"<opensesame_plugins.lsl_start.liblsl.LSL_session object at 0x00000249AF4B3C88>","0","black","[0.0, 0.0]","legacy","0","uniform","28","0","0","0","0","28","28","28","28","0","NA","28","NA","0","0","0","28","28","28","28","28","NA","28","28","0","Wed Nov 17 21:43:37 2021","-8","The main experiment item","yes","experiment.osexp","C:/Users/elus/Demant/+Team OMEXP - Article/ISAAR 2021/Data/experiments","no","mono","no","18","no","white","no","Next","400","no","768","28","0","28","C:/Users/elus/Documents/RecordingLSL_maybefinal/subject-5.csv","5","[<opensesame_plugins.lsl_start.liblsl.LSL_session object at 0x00000249AF4B3C88>]","Kafkaesque Koffka","3.2.7","2","0","2","1024","2","48000","-16","experiment","0","5","odd","NA","9757","9789","NA","5384","131336","128331","129333","130335","NA","NA","131336","NA","NA","9791","7757","127313","128832","129834","130836","127287","128313","127208","127287","10791","New experiment","yes","1024"
"<opensesame_plugins.lsl_start.liblsl.LSL_session object at 0x00000249AF4B3C88>","1","black","[0.0, 0.0]","legacy","0","uniform","29","0","0","0","0","29","29","29","29","0","NA","29","NA","0","0","0","29","29","29","29","29","NA","29","29","0","Wed Nov 17 21:43:37 2021","-7.5","The main experiment item","yes","experiment.osexp","C:/Users/elus/Demant/+Team OMEXP - Article/ISAAR 2021/Data/experiments","no","mono","no","18","no","white","no","Next","400","no","768","29","0","29","C:/Users/elus/Documents/RecordingLSL_maybefinal/subject-5.csv","5","[<opensesame_plugins.lsl_start.liblsl.LSL_session object at 0x00000249AF4B3C88>]","Kafkaesque Koffka","3.2.7","3","0","2","1024","2","48000","-16","experiment","0","5","odd","NA","9757","9789","NA","5384","135466","132460","133463","134465","NA","NA","135466","NA","NA","9791","7757","131451","132962","133964","134966","131423","132451","131344","131423","10791","New experiment","yes","1024"
"<opensesame_plugins.lsl_start.liblsl.LSL_session object at 0x00000249AF4B3C88>","1","black","[0.0, 0.0]","legacy","0","uniform","30","0","0","0","0","30","30","30","30","0","NA","30","NA","0","0","0","30","30","30","30","30","NA","30","30","0","Wed Nov 17 21:43:37 2021","-7.5","The main experiment item","yes","experiment.osexp","C:/Users/elus/Demant/+Team OMEXP - Article/ISAAR 2021/Data/experiments","no","mono","no","18","no","white","no","Next","400","no","768","30","0","30","C:/Users/elus/Documents/RecordingLSL_maybefinal/subject-5.csv","5","[<opensesame_plugins.lsl_start.liblsl.LSL_session object at 0x00000249AF4B3C88>]","Kafkaesque Koffka","3.2.7","1","0","2","1024","2","48000","-16","experiment","0","5","odd","NA","9757","9789","NA","5384","139595","136590","137592","138594","NA","NA","139595","NA","NA","9791","7757","135580","137091","138093","139095","135550","136580","135468","135550","10791","New experiment","yes","1024"
"<opensesame_plugins.lsl_start.liblsl.LSL_session object at 0x00000249AF4B3C88>","0","black","[0.0, 0.0]","legacy","0","uniform","31","0","0","0","0","31","31","31","31","0","NA","31","NA","0","0","0","31","31","31","31","31","NA","31","31","0","Wed Nov 17 21:43:37 2021","-7.5","The main experiment item","yes","experiment.osexp","C:/Users/elus/Demant/+Team OMEXP - Article/ISAAR 2021/Data/experiments","no","mono","no","18","no","white","no","Next","400","no","768","31","0","31","C:/Users/elus/Documents/RecordingLSL_maybefinal/subject-5.csv","5","[<opensesame_plugins.lsl_start.liblsl.LSL_session object at 0x00000249AF4B3C88>]","Kafkaesque Koffka","3.2.7","2","0","2","1024","2","48000","-16","experiment","0","5","odd","NA","9757","9789","NA","5384","143717","140712","141714","142716","NA","NA","143717","NA","NA","9791","7757","139703","141213","142215","143217","139677","140703","139597","139677","10791","New experiment","yes","1024"
"<opensesame_plugins.lsl_start.liblsl.LSL_session object at 0x00000249AF4B3C88>","1","black","[0.0, 0.0]","legacy","0","uniform","32","0","0","0","0","32","32","32","32","0","NA","32","NA","0","0","0","32","32","32","32","32","NA","32","32","0","Wed Nov 17 21:43:37 2021","-7","The main experiment item","yes","experiment.osexp","C:/Users/elus/Demant/+Team OMEXP - Article/ISAAR 2021/Data/experiments","no","mono","no","18","no","white","no","Next","400","no","768","32","0","32","C:/Users/elus/Documents/RecordingLSL_maybefinal/subject-5.csv","5","[<opensesame_plugins.lsl_start.liblsl.LSL_session object at 0x00000249AF4B3C88>]","Kafkaesque Koffka","3.2.7","3","0","2","1024","2","48000","-16","experiment","0","5","odd","NA","9757","9789","NA","5384","147845","144840","145842","146844","NA","NA","147845","NA","NA","9791","7757","143826","145341","146343","147345","143800","144826","143719","143800","10791","New experiment","yes","1024"
"<opensesame_plugins.lsl_start.liblsl.LSL_session object at 0x00000249AF4B3C88>","1","black","[0.0, 0.0]","legacy","0","uniform","33","0","0","0","0","33","33","33","33","0","NA","33","NA","0","0","0","33","33","33","33","33","NA","33","33","0","Wed Nov 17 21:43:37 2021","-7","The main experiment item","yes","experiment.osexp","C:/Users/elus/Demant/+Team OMEXP - Article/ISAAR 2021/Data/experiments","no","mono","no","18","no","white","no","Next","400","no","768","33","0","33","C:/Users/elus/Documents/RecordingLSL_maybefinal/subject-5.csv","5","[<opensesame_plugins.lsl_start.liblsl.LSL_session object at 0x00000249AF4B3C88>]","Kafkaesque Koffka","3.2.7","1","0","2","1024","2","48000","-16","experiment","0","5","odd","NA","9757","9789","NA","5384","151977","148972","149974","150976","NA","NA","151977","NA","NA","9791","7757","147963","149472","150475","151477","147933","148963","147854","147933","10791","New experiment","yes","1024"
"<opensesame_plugins.lsl_start.liblsl.LSL_session object at 0x00000249AF4B3C88>","0","black","[0.0, 0.0]","legacy","0","uniform","34","0","0","0","0","34","34","34","34","0","NA","34","NA","0","0","0","34","34","34","34","34","NA","34","34","0","Wed Nov 17 21:43:37 2021","-7","The main experiment item","yes","experiment.osexp","C:/Users/elus/Demant/+Team OMEXP - Article/ISAAR 2021/Data/experiments","no","mono","no","18","no","white","no","Next","400","no","768","34","0","34","C:/Users/elus/Documents/RecordingLSL_maybefinal/subject-5.csv","5","[<opensesame_plugins.lsl_start.liblsl.LSL_session object at 0x00000249AF4B3C88>]","Kafkaesque Koffka","3.2.7","2","0","2","1024","2","48000","-16","experiment","0","5","odd","NA","9757","9789","NA","5384","156097","153092","154094","155096","NA","NA","156097","NA","NA","9791","7757","152083","153593","154595","155597","152057","153083","151980","152057","10791","New experiment","yes","1024"
"<opensesame_plugins.lsl_start.liblsl.LSL_session object at 0x00000249AF4B3C88>","1","black","[0.0, 0.0]","legacy","0","uniform","35","0","0","0","0","35","35","35","35","0","NA","35","NA","0","0","0","35","35","35","35","35","NA","35","35","0","Wed Nov 17 21:43:37 2021","-6.5","The main experiment item","yes","experiment.osexp","C:/Users/elus/Demant/+Team OMEXP - Article/ISAAR 2021/Data/experiments","no","mono","no","18","no","white","no","Next","400","no","768","35","0","35","C:/Users/elus/Documents/RecordingLSL_maybefinal/subject-5.csv","5","[<opensesame_plugins.lsl_start.liblsl.LSL_session object at 0x00000249AF4B3C88>]","Kafkaesque Koffka","3.2.7","3","0","2","1024","2","48000","-16","experiment","0","5","odd","NA","9757","9789","NA","5384","160225","157220","158222","159224","NA","NA","160225","NA","NA","9791","7757","156208","157721","158723","159725","156179","157208","156101","156179","10791","New experiment","yes","1024"
"<opensesame_plugins.lsl_start.liblsl.LSL_session object at 0x00000249AF4B3C88>","1","black","[0.0, 0.0]","legacy","0","uniform","36","0","1","0","0","36","36","36","36","1","NA","36","NA","0","1","0","36","36","36","36","36","NA","36","36","1","Wed Nov 17 21:43:37 2021","-6","The main experiment item","yes","experiment.osexp","C:/Users/elus/Demant/+Team OMEXP - Article/ISAAR 2021/Data/experiments","no","mono","no","18","no","white","no","Next","1000","no","768","0","1","0","C:/Users/elus/Documents/RecordingLSL_maybefinal/subject-5.csv","5","[<opensesame_plugins.lsl_start.liblsl.LSL_session object at 0x00000249AF4B3C88>]","Kafkaesque Koffka","3.2.7","1","0","2","1024","2","48000","-16","experiment","0","5","odd","NA","9757","160318","NA","5384","165405","162400","163402","164404","NA","NA","165405","NA","NA","160319","7757","161383","162901","163903","164905","161364","162383","160227","161363","161319","New experiment","yes","1024"
"<opensesame_plugins.lsl_start.liblsl.LSL_session object at 0x00000249AF4B3C88>","1","black","[0.0, 0.0]","legacy","0","uniform","37","0","1","0","0","37","37","37","37","1","NA","37","NA","0","1","0","37","37","37","37","37","NA","37","37","1","Wed Nov 17 21:43:37 2021","-6","The main experiment item","yes","experiment.osexp","C:/Users/elus/Demant/+Team OMEXP - Article/ISAAR 2021/Data/experiments","no","mono","no","18","no","white","no","Next","1000","no","768","1","1","1","C:/Users/elus/Documents/RecordingLSL_maybefinal/subject-5.csv","5","[<opensesame_plugins.lsl_start.liblsl.LSL_session object at 0x00000249AF4B3C88>]","Kafkaesque Koffka","3.2.7","2","0","2","1024","2","48000","-16","experiment","0","5","odd","NA","9757","160318","NA","5384","169534","166529","167531","168533","NA","NA","169534","NA","NA","160319","7757","165515","167030","168032","169034","165487","166515","165407","165487","161319","New experiment","yes","1024"
"<opensesame_plugins.lsl_start.liblsl.LSL_session object at 0x00000249AF4B3C88>","1","black","[0.0, 0.0]","legacy","0","uniform","38","0","1","0","0","38","38","38","38","1","NA","38","NA","0","1","0","38","38","38","38","38","NA","38","38","1","Wed Nov 17 21:43:37 2021","-6","The main experiment item","yes","experiment.osexp","C:/Users/elus/Demant/+Team OMEXP - Article/ISAAR 2021/Data/experiments","no","mono","no","18","no","white","no","Next","1000","no","768","2","1","2","C:/Users/elus/Documents/RecordingLSL_maybefinal/subject-5.csv","5","[<opensesame_plugins.lsl_start.liblsl.LSL_session object at 0x00000249AF4B3C88>]","Kafkaesque Koffka","3.2.7","3","0","2","1024","2","48000","-16","experiment","0","5","odd","NA","9757","160318","NA","5384","173665","170660","171662","172664","NA","NA","173665","NA","NA","160319","7757","169644","171161","172163","173165","169615","170644","169536","169615","161319","New experiment","yes","1024"
"<opensesame_plugins.lsl_start.liblsl.LSL_session object at 0x00000249AF4B3C88>","1","black","[0.0, 0.0]","legacy","0","uniform","39","0","1","0","0","39","39","39","39","1","NA","39","NA","0","1","0","39","39","39","39","39","NA","39","39","1","Wed Nov 17 21:43:37 2021","-7","The main experiment item","yes","experiment.osexp","C:/Users/elus/Demant/+Team OMEXP - Article/ISAAR 2021/Data/experiments","no","mono","no","18","no","white","no","Next","1000","no","768","3","1","3","C:/Users/elus/Documents/RecordingLSL_maybefinal/subject-5.csv","5","[<opensesame_plugins.lsl_start.liblsl.LSL_session object at 0x00000249AF4B3C88>]","Kafkaesque Koffka","3.2.7","1","0","2","1024","2","48000","-16","experiment","0","5","odd","NA","9757","160318","NA","5384","177805","174800","175802","176804","NA","NA","177805","NA","NA","160319","7757","173786","175301","176303","177305","173756","174786","173667","173756","161319","New experiment","yes","1024"
"<opensesame_plugins.lsl_start.liblsl.LSL_session object at 0x00000249AF4B3C88>","0","black","[0.0, 0.0]","legacy","0","uniform","40","0","1","0","0","40","40","40","40","1","NA","40","NA","0","1","0","40","40","40","40","40","NA","40","40","1","Wed Nov 17 21:43:37 2021","-7","The main experiment item","yes","experiment.osexp","C:/Users/elus/Demant/+Team OMEXP - Article/ISAAR 2021/Data/experiments","no","mono","no","18","no","white","no","Next","1000","no","768","4","1","4","C:/Users/elus/Documents/RecordingLSL_maybefinal/subject-5.csv","5","[<opensesame_plugins.lsl_start.liblsl.LSL_session object at 0x00000249AF4B3C88>]","Kafkaesque Koffka","3.2.7","2","0","2","1024","2","48000","-16","experiment","0","5","odd","NA","9757","160318","NA","5384","182035","179030","180032","181034","NA","NA","182035","NA","NA","160319","7757","178019","179531","180533","181535","177891","179019","177807","177891","161319","New experiment","yes","1024"
"<opensesame_plugins.lsl_start.liblsl.LSL_session object at 0x00000249AF4B3C88>","1","black","[0.0, 0.0]","legacy","0","uniform","41","0","1","0","0","41","41","41","41","1","NA","41","NA","0","1","0","41","41","41","41","41","NA","41","41","1","Wed Nov 17 21:43:37 2021","-6.5","The main experiment item","yes","experiment.osexp","C:/Users/elus/Demant/+Team OMEXP - Article/ISAAR 2021/Data/experiments","no","mono","no","18","no","white","no","Next","1000","no","768","5","1","5","C:/Users/elus/Documents/RecordingLSL_maybefinal/subject-5.csv","5","[<opensesame_plugins.lsl_start.liblsl.LSL_session object at 0x00000249AF4B3C88>]","Kafkaesque Koffka","3.2.7","3","0","2","1024","2","48000","-16","experiment","0","5","odd","NA","9757","160318","NA","5384","186176","183170","184173","185175","NA","NA","186176","NA","NA","160319","7757","182157","183672","184674","185676","182129","183157","182037","182128","161319","New experiment","yes","1024"
"<opensesame_plugins.lsl_start.liblsl.LSL_session object at 0x00000249AF4B3C88>","1","black","[0.0, 0.0]","legacy","0","uniform","42","0","1","0","0","42","42","42","42","1","NA","42","NA","0","1","0","42","42","42","42","42","NA","42","42","1","Wed Nov 17 21:43:37 2021","-6.5","The main experiment item","yes","experiment.osexp","C:/Users/elus/Demant/+Team OMEXP - Article/ISAAR 2021/Data/experiments","no","mono","no","18","no","white","no","Next","1000","no","768","6","1","6","C:/Users/elus/Documents/RecordingLSL_maybefinal/subject-5.csv","5","[<opensesame_plugins.lsl_start.liblsl.LSL_session object at 0x00000249AF4B3C88>]","Kafkaesque Koffka","3.2.7","1","0","2","1024","2","48000","-16","experiment","0","5","odd","NA","9757","160318","NA","5384","190305","187300","188302","189304","NA","NA","190305","NA","NA","160319","7757","186284","187801","188803","189805","186258","187284","186178","186258","161319","New experiment","yes","1024"
"<opensesame_plugins.lsl_start.liblsl.LSL_session object at 0x00000249AF4B3C88>","1","black","[0.0, 0.0]","legacy","0","uniform","43","0","1","0","0","43","43","43","43","1","NA","43","NA","0","1","0","43","43","43","43","43","NA","43","43","1","Wed Nov 17 21:43:37 2021","-6.5","The main experiment item","yes","experiment.osexp","C:/Users/elus/Demant/+Team OMEXP - Article/ISAAR 2021/Data/experiments","no","mono","no","18","no","white","no","Next","1000","no","768","7","1","7","C:/Users/elus/Documents/RecordingLSL_maybefinal/subject-5.csv","5","[<opensesame_plugins.lsl_start.liblsl.LSL_session object at 0x00000249AF4B3C88>]","Kafkaesque Koffka","3.2.7","2","0","2","1024","2","48000","-16","experiment","0","5","odd","NA","9757","160318","NA","5384","194437","191429","192431","193433","NA","NA","194437","NA","NA","160319","7757","190415","191930","192932","193937","190388","191415","190308","190388","161319","New experiment","yes","1024"
"<opensesame_plugins.lsl_start.liblsl.LSL_session object at 0x00000249AF4B3C88>","1","black","[0.0, 0.0]","legacy","0","uniform","44","0","1","0","0","44","44","44","44","1","NA","44","NA","0","1","0","44","44","44","44","44","NA","44","44","1","Wed Nov 17 21:43:37 2021","-7","The main experiment item","yes","experiment.osexp","C:/Users/elus/Demant/+Team OMEXP - Article/ISAAR 2021/Data/experiments","no","mono","no","18","no","white","no","Next","1000","no","768","8","1","8","C:/Users/elus/Documents/RecordingLSL_maybefinal/subject-5.csv","5","[<opensesame_plugins.lsl_start.liblsl.LSL_session object at 0x00000249AF4B3C88>]","Kafkaesque Koffka","3.2.7","3","0","2","1024","2","48000","-16","experiment","0","5","odd","NA","9757","160318","NA","5384","198565","195560","196562","197564","NA","NA","198565","NA","NA","160319","7757","194547","196061","197063","198065","194518","195547","194439","194518","161319","New experiment","yes","1024"
"<opensesame_plugins.lsl_start.liblsl.LSL_session object at 0x00000249AF4B3C88>","1","black","[0.0, 0.0]","legacy","0","uniform","45","0","1","0","0","45","45","45","45","1","NA","45","NA","0","1","0","45","45","45","45","45","NA","45","45","1","Wed Nov 17 21:43:37 2021","-7","The main experiment item","yes","experiment.osexp","C:/Users/elus/Demant/+Team OMEXP - Article/ISAAR 2021/Data/experiments","no","mono","no","18","no","white","no","Next","1000","no","768","9","1","9","C:/Users/elus/Documents/RecordingLSL_maybefinal/subject-5.csv","5","[<opensesame_plugins.lsl_start.liblsl.LSL_session object at 0x00000249AF4B3C88>]","Kafkaesque Koffka","3.2.7","1","0","2","1024","2","48000","-16","experiment","0","5","odd","NA","9757","160318","NA","5384","202686","199681","200683","201685","NA","NA","202686","NA","NA","160319","7757","198671","200182","201184","202186","198644","199671","198567","198643","161319","New experiment","yes","1024"
"<opensesame_plugins.lsl_start.liblsl.LSL_session object at 0x00000249AF4B3C88>","1","black","[0.0, 0.0]","legacy","0","uniform","46","0","1","0","0","46","46","46","46","1","NA","46","NA","0","1","0","46","46","46","46","46","NA","46","46","1","Wed Nov 17 21:43:37 2021","-7","The main experiment item","yes","experiment.osexp","C:/Users/elus/Demant/+Team OMEXP - Article/ISAAR 2021/Data/experiments","no","mono","no","18","no","white","no","Next","1000","no","768","10","1","10","C:/Users/elus/Documents/RecordingLSL_maybefinal/subject-5.csv","5","[<opensesame_plugins.lsl_start.liblsl.LSL_session object at 0x00000249AF4B3C88>]","Kafkaesque Koffka","3.2.7","2","0","2","1024","2","48000","-16","experiment","0","5","odd","NA","9757","160318","NA","5384","206817","203812","204814","205816","NA","NA","206817","NA","NA","160319","7757","202803","204313","205315","206317","202770","203803","202691","202770","161319","New experiment","yes","1024"
"<opensesame_plugins.lsl_start.liblsl.LSL_session object at 0x00000249AF4B3C88>","1","black","[0.0, 0.0]","legacy","0","uniform","47","0","1","0","0","47","47","47","47","1","NA","47","NA","0","1","0","47","47","47","47","47","NA","47","47","1","Wed Nov 17 21:43:37 2021","-7.5","The main experiment item","yes","experiment.osexp","C:/Users/elus/Demant/+Team OMEXP - Article/ISAAR 2021/Data/experiments","no","mono","no","18","no","white","no","Next","1000","no","768","11","1","11","C:/Users/elus/Documents/RecordingLSL_maybefinal/subject-5.csv","5","[<opensesame_plugins.lsl_start.liblsl.LSL_session object at 0x00000249AF4B3C88>]","Kafkaesque Koffka","3.2.7","3","0","2","1024","2","48000","-16","experiment","0","5","odd","NA","9757","160318","NA","5384","211044","208039","209041","210043","NA","NA","211044","NA","NA","160319","7757","207026","208540","209542","210544","206898","208026","206819","206898","161319","New experiment","yes","1024"
"<opensesame_plugins.lsl_start.liblsl.LSL_session object at 0x00000249AF4B3C88>","1","black","[0.0, 0.0]","legacy","0","uniform","48","0","1","0","0","48","48","48","48","1","NA","48","NA","0","1","0","48","48","48","48","48","NA","48","48","1","Wed Nov 17 21:43:37 2021","-7.5","The main experiment item","yes","experiment.osexp","C:/Users/elus/Demant/+Team OMEXP - Article/ISAAR 2021/Data/experiments","no","mono","no","18","no","white","no","Next","1000","no","768","12","1","12","C:/Users/elus/Documents/RecordingLSL_maybefinal/subject-5.csv","5","[<opensesame_plugins.lsl_start.liblsl.LSL_session object at 0x00000249AF4B3C88>]","Kafkaesque Koffka","3.2.7","1","0","2","1024","2","48000","-16","experiment","0","5","odd","NA","9757","160318","NA","5384","215168","212163","213165","214167","NA","NA","215168","NA","NA","160319","7757","211153","212664","213666","214668","211125","212153","211046","211125","161319","New experiment","yes","1024"
"<opensesame_plugins.lsl_start.liblsl.LSL_session object at 0x00000249AF4B3C88>","1","black","[0.0, 0.0]","legacy","0","uniform","49","0","1","0","0","49","49","49","49","1","NA","49","NA","0","1","0","49","49","49","49","49","NA","49","49","1","Wed Nov 17 21:43:37 2021","-7.5","The main experiment item","yes","experiment.osexp","C:/Users/elus/Demant/+Team OMEXP - Article/ISAAR 2021/Data/experiments","no","mono","no","18","no","white","no","Next","1000","no","768","13","1","13","C:/Users/elus/Documents/RecordingLSL_maybefinal/subject-5.csv","5","[<opensesame_plugins.lsl_start.liblsl.LSL_session object at 0x00000249AF4B3C88>]","Kafkaesque Koffka","3.2.7","2","0","2","1024","2","48000","-16","experiment","0","5","odd","NA","9757","160318","NA","5384","219296","216291","217293","218295","NA","NA","219296","NA","NA","160319","7757","215276","216792","217794","218796","215248","216276","215170","215248","161319","New experiment","yes","1024"
"<opensesame_plugins.lsl_start.liblsl.LSL_session object at 0x00000249AF4B3C88>","1","black","[0.0, 0.0]","legacy","0","uniform","50","0","1","0","0","50","50","50","50","1","NA","50","NA","0","1","0","50","50","50","50","50","NA","50","50","1","Wed Nov 17 21:43:37 2021","-8","The main experiment item","yes","experiment.osexp","C:/Users/elus/Demant/+Team OMEXP - Article/ISAAR 2021/Data/experiments","no","mono","no","18","no","white","no","Next","1000","no","768","14","1","14","C:/Users/elus/Documents/RecordingLSL_maybefinal/subject-5.csv","5","[<opensesame_plugins.lsl_start.liblsl.LSL_session object at 0x00000249AF4B3C88>]","Kafkaesque Koffka","3.2.7","3","0","2","1024","2","48000","-16","experiment","0","5","odd","NA","9757","160318","NA","5384","223426","220421","221423","222425","NA","NA","223426","NA","NA","160319","7757","219405","220922","221924","222926","219378","220405","219300","219378","161319","New experiment","yes","1024"
"<opensesame_plugins.lsl_start.liblsl.LSL_session object at 0x00000249AF4B3C88>","1","black","[0.0, 0.0]","legacy","0","uniform","51","0","1","0","0","51","51","51","51","1","NA","51","NA","0","1","0","51","51","51","51","51","NA","51","51","1","Wed Nov 17 21:43:37 2021","-8","The main experiment item","yes","experiment.osexp","C:/Users/elus/Demant/+Team OMEXP - Article/ISAAR 2021/Data/experiments","no","mono","no","18","no","white","no","Next","1000","no","768","15","1","15","C:/Users/elus/Documents/RecordingLSL_maybefinal/subject-5.csv","5","[<opensesame_plugins.lsl_start.liblsl.LSL_session object at 0x00000249AF4B3C88>]","Kafkaesque Koffka","3.2.7","1","0","2","1024","2","48000","-16","experiment","0","5","odd","NA","9757","160318","NA","5384","227555","224550","225552","226554","NA","NA","227555","NA","NA","160319","7757","223534","225051","226053","227055","223507","224534","223428","223507","161319","New experiment","yes","1024"
"<opensesame_plugins.lsl_start.liblsl.LSL_session object at 0x00000249AF4B3C88>","1","black","[0.0, 0.0]","legacy","0","uniform","52","0","1","0","0","52","52","52","52","1","NA","52","NA","0","1","0","52","52","52","52","52","NA","52","52","1","Wed Nov 17 21:43:37 2021","-8","The main experiment item","yes","experiment.osexp","C:/Users/elus/Demant/+Team OMEXP - Article/ISAAR 2021/Data/experiments","no","mono","no","18","no","white","no","Next","1000","no","768","16","1","16","C:/Users/elus/Documents/RecordingLSL_maybefinal/subject-5.csv","5","[<opensesame_plugins.lsl_start.liblsl.LSL_session object at 0x00000249AF4B3C88>]","Kafkaesque Koffka","3.2.7","2","0","2","1024","2","48000","-16","experiment","0","5","odd","NA","9757","160318","NA","5384","231675","228669","229672","230674","NA","NA","231675","NA","NA","160319","7757","227659","229171","230173","231175","227634","228659","227557","227634","161319","New experiment","yes","1024"
"<opensesame_plugins.lsl_start.liblsl.LSL_session object at 0x00000249AF4B3C88>","0","black","[0.0, 0.0]","legacy","0","uniform","53","0","1","0","0","53","53","53","53","1","NA","53","NA","0","1","0","53","53","53","53","53","NA","53","53","1","Wed Nov 17 21:43:37 2021","-8.5","The main experiment item","yes","experiment.osexp","C:/Users/elus/Demant/+Team OMEXP - Article/ISAAR 2021/Data/experiments","no","mono","no","18","no","white","no","Next","1000","no","768","17","1","17","C:/Users/elus/Documents/RecordingLSL_maybefinal/subject-5.csv","5","[<opensesame_plugins.lsl_start.liblsl.LSL_session object at 0x00000249AF4B3C88>]","Kafkaesque Koffka","3.2.7","3","0","2","1024","2","48000","-16","experiment","0","5","odd","NA","9757","160318","NA","5384","235804","232799","233801","234803","NA","NA","235804","NA","NA","160319","7757","231789","233300","234302","235304","231761","232789","231683","231761","161319","New experiment","yes","1024"
"<opensesame_plugins.lsl_start.liblsl.LSL_session object at 0x00000249AF4B3C88>","1","black","[0.0, 0.0]","legacy","0","uniform","54","0","1","0","0","54","54","54","54","1","NA","54","NA","0","1","0","54","54","54","54","54","NA","54","54","1","Wed Nov 17 21:43:37 2021","-8","The main experiment item","yes","experiment.osexp","C:/Users/elus/Demant/+Team OMEXP - Article/ISAAR 2021/Data/experiments","no","mono","no","18","no","white","no","Next","1000","no","768","18","1","18","C:/Users/elus/Documents/RecordingLSL_maybefinal/subject-5.csv","5","[<opensesame_plugins.lsl_start.liblsl.LSL_session object at 0x00000249AF4B3C88>]","Kafkaesque Koffka","3.2.7","1","0","2","1024","2","48000","-16","experiment","0","5","odd","NA","9757","160318","NA","5384","239925","236919","237922","238924","NA","NA","239925","NA","NA","160319","7757","235911","237421","238423","239425","235885","236911","235806","235885","161319","New experiment","yes","1024"
"<opensesame_plugins.lsl_start.liblsl.LSL_session object at 0x00000249AF4B3C88>","0","black","[0.0, 0.0]","legacy","0","uniform","55","0","1","0","0","55","55","55","55","1","NA","55","NA","0","1","0","55","55","55","55","55","NA","55","55","1","Wed Nov 17 21:43:37 2021","-8","The main experiment item","yes","experiment.osexp","C:/Users/elus/Demant/+Team OMEXP - Article/ISAAR 2021/Data/experiments","no","mono","no","18","no","white","no","Next","1000","no","768","19","1","19","C:/Users/elus/Documents/RecordingLSL_maybefinal/subject-5.csv","5","[<opensesame_plugins.lsl_start.liblsl.LSL_session object at 0x00000249AF4B3C88>]","Kafkaesque Koffka","3.2.7","2","0","2","1024","2","48000","-16","experiment","0","5","odd","NA","9757","160318","NA","5384","244046","241041","242043","243045","NA","NA","244046","NA","NA","160319","7757","240032","241542","242544","243546","240005","241032","239927","240005","161319","New experiment","yes","1024"
"<opensesame_plugins.lsl_start.liblsl.LSL_session object at 0x00000249AF4B3C88>","0","black","[0.0, 0.0]","legacy","0","uniform","56","0","1","0","0","56","56","56","56","1","NA","56","NA","0","1","0","56","56","56","56","56","NA","56","56","1","Wed Nov 17 21:43:37 2021","-7.5","The main experiment item","yes","experiment.osexp","C:/Users/elus/Demant/+Team OMEXP - Article/ISAAR 2021/Data/experiments","no","mono","no","18","no","white","no","Next","1000","no","768","20","1","20","C:/Users/elus/Documents/RecordingLSL_maybefinal/subject-5.csv","5","[<opensesame_plugins.lsl_start.liblsl.LSL_session object at 0x00000249AF4B3C88>]","Kafkaesque Koffka","3.2.7","3","0","2","1024","2","48000","-16","experiment","0","5","odd","NA","9757","160318","NA","5384","248186","245181","246183","247185","NA","NA","248186","NA","NA","160319","7757","244167","245682","246684","247686","244135","245167","244054","244135","161319","New experiment","yes","1024"
"<opensesame_plugins.lsl_start.liblsl.LSL_session object at 0x00000249AF4B3C88>","1","black","[0.0, 0.0]","legacy","0","uniform","57","0","1","0","0","57","57","57","57","1","NA","57","NA","0","1","0","57","57","57","57","57","NA","57","57","1","Wed Nov 17 21:43:37 2021","-7","The main experiment item","yes","experiment.osexp","C:/Users/elus/Demant/+Team OMEXP - Article/ISAAR 2021/Data/experiments","no","mono","no","18","no","white","no","Next","1000","no","768","21","1","21","C:/Users/elus/Documents/RecordingLSL_maybefinal/subject-5.csv","5","[<opensesame_plugins.lsl_start.liblsl.LSL_session object at 0x00000249AF4B3C88>]","Kafkaesque Koffka","3.2.7","1","0","2","1024","2","48000","-16","experiment","0","5","odd","NA","9757","160318","NA","5384","252345","249340","250342","251344","NA","NA","252345","NA","NA","160319","7757","248326","249841","250843","251845","248297","249326","248195","248297","161319","New experiment","yes","1024"
"<opensesame_plugins.lsl_start.liblsl.LSL_session object at 0x00000249AF4B3C88>","1","black","[0.0, 0.0]","legacy","0","uniform","58","0","1","0","0","58","58","58","58","1","NA","58","NA","0","1","0","58","58","58","58","58","NA","58","58","1","Wed Nov 17 21:43:37 2021","-7","The main experiment item","yes","experiment.osexp","C:/Users/elus/Demant/+Team OMEXP - Article/ISAAR 2021/Data/experiments","no","mono","no","18","no","white","no","Next","1000","no","768","22","1","22","C:/Users/elus/Documents/RecordingLSL_maybefinal/subject-5.csv","5","[<opensesame_plugins.lsl_start.liblsl.LSL_session object at 0x00000249AF4B3C88>]","Kafkaesque Koffka","3.2.7","2","0","2","1024","2","48000","-16","experiment","0","5","odd","NA","9757","160318","NA","5384","256474","253469","254471","255473","NA","NA","256474","NA","NA","160319","7757","252461","253970","254972","255974","252431","253461","252351","252431","161319","New experiment","yes","1024"
"<opensesame_plugins.lsl_start.liblsl.LSL_session object at 0x00000249AF4B3C88>","1","black","[0.0, 0.0]","legacy","0","uniform","59","0","1","0","0","59","59","59","59","1","NA","59","NA","0","1","0","59","59","59","59","59","NA","59","59","1","Wed Nov 17 21:43:37 2021","-7","The main experiment item","yes","experiment.osexp","C:/Users/elus/Demant/+Team OMEXP - Article/ISAAR 2021/Data/experiments","no","mono","no","18","no","white","no","Next","1000","no","768","23","1","23","C:/Users/elus/Documents/RecordingLSL_maybefinal/subject-5.csv","5","[<opensesame_plugins.lsl_start.liblsl.LSL_session object at 0x00000249AF4B3C88>]","Kafkaesque Koffka","3.2.7","3","0","2","1024","2","48000","-16","experiment","0","5","odd","NA","9757","160318","NA","5384","260596","257591","258593","259595","NA","NA","260596","NA","NA","160319","7757","256582","258092","259094","260096","256553","257582","256476","256553","161319","New experiment","yes","1024"
"<opensesame_plugins.lsl_start.liblsl.LSL_session object at 0x00000249AF4B3C88>","1","black","[0.0, 0.0]","legacy","0","uniform","60","0","1","0","0","60","60","60","60","1","NA","60","NA","0","1","0","60","60","60","60","60","NA","60","60","1","Wed Nov 17 21:43:37 2021","-7.5","The main experiment item","yes","experiment.osexp","C:/Users/elus/Demant/+Team OMEXP - Article/ISAAR 2021/Data/experiments","no","mono","no","18","no","white","no","Next","1000","no","768","24","1","24","C:/Users/elus/Documents/RecordingLSL_maybefinal/subject-5.csv","5","[<opensesame_plugins.lsl_start.liblsl.LSL_session object at 0x00000249AF4B3C88>]","Kafkaesque Koffka","3.2.7","1","0","2","1024","2","48000","-16","experiment","0","5","odd","NA","9757","160318","NA","5384","264736","261730","262733","263735","NA","NA","264736","NA","NA","160319","7757","260714","262232","263234","264236","260674","261714","260598","260674","161319","New experiment","yes","1024"
"<opensesame_plugins.lsl_start.liblsl.LSL_session object at 0x00000249AF4B3C88>","1","black","[0.0, 0.0]","legacy","0","uniform","61","0","1","0","0","61","61","61","61","1","NA","61","NA","0","1","0","61","61","61","61","61","NA","61","61","1","Wed Nov 17 21:43:37 2021","-7.5","The main experiment item","yes","experiment.osexp","C:/Users/elus/Demant/+Team OMEXP - Article/ISAAR 2021/Data/experiments","no","mono","no","18","no","white","no","Next","1000","no","768","25","1","25","C:/Users/elus/Documents/RecordingLSL_maybefinal/subject-5.csv","5","[<opensesame_plugins.lsl_start.liblsl.LSL_session object at 0x00000249AF4B3C88>]","Kafkaesque Koffka","3.2.7","2","0","2","1024","2","48000","-16","experiment","0","5","odd","NA","9757","160318","NA","5384","268887","265882","266884","267886","NA","NA","268887","NA","NA","160319","7757","264861","266383","267385","268387","264819","265861","264738","264819","161319","New experiment","yes","1024"
"<opensesame_plugins.lsl_start.liblsl.LSL_session object at 0x00000249AF4B3C88>","0","black","[0.0, 0.0]","legacy","0","uniform","62","0","1","0","0","62","62","62","62","1","NA","62","NA","0","1","0","62","62","62","62","62","NA","62","62","1","Wed Nov 17 21:43:37 2021","-7.5","The main experiment item","yes","experiment.osexp","C:/Users/elus/Demant/+Team OMEXP - Article/ISAAR 2021/Data/experiments","no","mono","no","18","no","white","no","Next","1000","no","768","26","1","26","C:/Users/elus/Documents/RecordingLSL_maybefinal/subject-5.csv","5","[<opensesame_plugins.lsl_start.liblsl.LSL_session object at 0x00000249AF4B3C88>]","Kafkaesque Koffka","3.2.7","3","0","2","1024","2","48000","-16","experiment","0","5","odd","NA","9757","160318","NA","5384","273054","270047","271051","272053","NA","NA","273054","NA","NA","160319","7757","269027","270548","271552","272554","268989","270027","268889","268989","161319","New experiment","yes","1024"
"<opensesame_plugins.lsl_start.liblsl.LSL_session object at 0x00000249AF4B3C88>","0","black","[0.0, 0.0]","legacy","0","uniform","63","0","1","0","0","63","63","63","63","1","NA","63","NA","0","1","0","63","63","63","63","63","NA","63","63","1","Wed Nov 17 21:43:37 2021","-7","The main experiment item","yes","experiment.osexp","C:/Users/elus/Demant/+Team OMEXP - Article/ISAAR 2021/Data/experiments","no","mono","no","18","no","white","no","Next","1000","no","768","27","1","27","C:/Users/elus/Documents/RecordingLSL_maybefinal/subject-5.csv","5","[<opensesame_plugins.lsl_start.liblsl.LSL_session object at 0x00000249AF4B3C88>]","Kafkaesque Koffka","3.2.7","1","0","2","1024","2","48000","-16","experiment","0","5","odd","NA","9757","160318","NA","5384","277216","274210","275212","276215","NA","NA","277216","NA","NA","160319","7757","273192","274711","275714","276716","273155","274194","273056","273155","161319","New experiment","yes","1024"
"<opensesame_plugins.lsl_start.liblsl.LSL_session object at 0x00000249AF4B3C88>","0","black","[0.0, 0.0]","legacy","0","uniform","64","0","1","0","0","64","64","64","64","1","NA","64","NA","0","1","0","64","64","64","64","64","NA","64","64","1","Wed Nov 17 21:43:37 2021","-6.5","The main experiment item","yes","experiment.osexp","C:/Users/elus/Demant/+Team OMEXP - Article/ISAAR 2021/Data/experiments","no","mono","no","18","no","white","no","Next","1000","no","768","28","1","28","C:/Users/elus/Documents/RecordingLSL_maybefinal/subject-5.csv","5","[<opensesame_plugins.lsl_start.liblsl.LSL_session object at 0x00000249AF4B3C88>]","Kafkaesque Koffka","3.2.7","2","0","2","1024","2","48000","-16","experiment","0","5","odd","NA","9757","160318","NA","5384","281375","278370","279372","280374","NA","NA","281375","NA","NA","160319","7757","277354","278871","279873","280875","277316","278355","277218","277316","161319","New experiment","yes","1024"
"<opensesame_plugins.lsl_start.liblsl.LSL_session object at 0x00000249AF4B3C88>","1","black","[0.0, 0.0]","legacy","0","uniform","65","0","1","0","0","65","65","65","65","1","NA","65","NA","0","1","0","65","65","65","65","65","NA","65","65","1","Wed Nov 17 21:43:37 2021","-6","The main experiment item","yes","experiment.osexp","C:/Users/elus/Demant/+Team OMEXP - Article/ISAAR 2021/Data/experiments","no","mono","no","18","no","white","no","Next","1000","no","768","29","1","29","C:/Users/elus/Documents/RecordingLSL_maybefinal/subject-5.csv","5","[<opensesame_plugins.lsl_start.liblsl.LSL_session object at 0x00000249AF4B3C88>]","Kafkaesque Koffka","3.2.7","3","0","2","1024","2","48000","-16","experiment","0","5","odd","NA","9757","160318","NA","5384","285536","282530","283533","284535","NA","NA","285536","NA","NA","160319","7757","281519","283031","284034","285036","281478","282519","281383","281478","161319","New experiment","yes","1024"
"<opensesame_plugins.lsl_start.liblsl.LSL_session object at 0x00000249AF4B3C88>","1","black","[0.0, 0.0]","legacy","0","uniform","66","0","1","0","0","66","66","66","66","1","NA","66","NA","0","1","0","66","66","66","66","66","NA","66","66","1","Wed Nov 17 21:43:37 2021","-6","The main experiment item","yes","experiment.osexp","C:/Users/elus/Demant/+Team OMEXP - Article/ISAAR 2021/Data/experiments","no","mono","no","18","no","white","no","Next","1000","no","768","30","1","30","C:/Users/elus/Documents/RecordingLSL_maybefinal/subject-5.csv","5","[<opensesame_plugins.lsl_start.liblsl.LSL_session object at 0x00000249AF4B3C88>]","Kafkaesque Koffka","3.2.7","1","0","2","1024","2","48000","-16","experiment","0","5","odd","NA","9757","160318","NA","5384","289689","286684","287686","288688","NA","NA","289689","NA","NA","160319","7757","285669","287185","288187","289189","285632","286671","285538","285632","161319","New experiment","yes","1024"
"<opensesame_plugins.lsl_start.liblsl.LSL_session object at 0x00000249AF4B3C88>","1","black","[0.0, 0.0]","legacy","0","uniform","67","0","1","0","0","67","67","67","67","1","NA","67","NA","0","1","0","67","67","67","67","67","NA","67","67","1","Wed Nov 17 21:43:37 2021","-6","The main experiment item","yes","experiment.osexp","C:/Users/elus/Demant/+Team OMEXP - Article/ISAAR 2021/Data/experiments","no","mono","no","18","no","white","no","Next","1000","no","768","31","1","31","C:/Users/elus/Documents/RecordingLSL_maybefinal/subject-5.csv","5","[<opensesame_plugins.lsl_start.liblsl.LSL_session object at 0x00000249AF4B3C88>]","Kafkaesque Koffka","3.2.7","2","0","2","1024","2","48000","-16","experiment","0","5","odd","NA","9757","160318","NA","5384","293851","290842","291847","292849","NA","NA","293851","NA","NA","160319","7757","289822","291343","292348","293351","289788","290822","289693","289788","161319","New experiment","yes","1024"
"<opensesame_plugins.lsl_start.liblsl.LSL_session object at 0x00000249AF4B3C88>","1","black","[0.0, 0.0]","legacy","0","uniform","68","0","1","0","0","68","68","68","68","1","NA","68","NA","0","1","0","68","68","68","68","68","NA","68","68","1","Wed Nov 17 21:43:37 2021","-6.5","The main experiment item","yes","experiment.osexp","C:/Users/elus/Demant/+Team OMEXP - Article/ISAAR 2021/Data/experiments","no","mono","no","18","no","white","no","Next","1000","no","768","32","1","32","C:/Users/elus/Documents/RecordingLSL_maybefinal/subject-5.csv","5","[<opensesame_plugins.lsl_start.liblsl.LSL_session object at 0x00000249AF4B3C88>]","Kafkaesque Koffka","3.2.7","3","0","2","1024","2","48000","-16","experiment","0","5","odd","NA","9757","160318","NA","5384","298013","295003","296008","297011","NA","NA","298013","NA","NA","160319","7757","293989","295504","296509","297513","293953","294990","293853","293953","161319","New experiment","yes","1024"
"<opensesame_plugins.lsl_start.liblsl.LSL_session object at 0x00000249AF4B3C88>","1","black","[0.0, 0.0]","legacy","0","uniform","69","0","1","0","0","69","69","69","69","1","NA","69","NA","0","1","0","69","69","69","69","69","NA","69","69","1","Wed Nov 17 21:43:37 2021","-6.5","The main experiment item","yes","experiment.osexp","C:/Users/elus/Demant/+Team OMEXP - Article/ISAAR 2021/Data/experiments","no","mono","no","18","no","white","no","Next","1000","no","768","33","1","33","C:/Users/elus/Documents/RecordingLSL_maybefinal/subject-5.csv","5","[<opensesame_plugins.lsl_start.liblsl.LSL_session object at 0x00000249AF4B3C88>]","Kafkaesque Koffka","3.2.7","1","0","2","1024","2","48000","-16","experiment","0","5","odd","NA","9757","160318","NA","5384","302169","299162","300166","301168","NA","NA","302169","NA","NA","160319","7757","298142","299662","300667","301669","298109","299142","298016","298109","161319","New experiment","yes","1024"
"<opensesame_plugins.lsl_start.liblsl.LSL_session object at 0x00000249AF4B3C88>","1","black","[0.0, 0.0]","legacy","0","uniform","70","0","1","0","0","70","70","70","70","1","NA","70","NA","0","1","0","70","70","70","70","70","NA","70","70","1","Wed Nov 17 21:43:37 2021","-6.5","The main experiment item","yes","experiment.osexp","C:/Users/elus/Demant/+Team OMEXP - Article/ISAAR 2021/Data/experiments","no","mono","no","18","no","white","no","Next","1000","no","768","34","1","34","C:/Users/elus/Documents/RecordingLSL_maybefinal/subject-5.csv","5","[<opensesame_plugins.lsl_start.liblsl.LSL_session object at 0x00000249AF4B3C88>]","Kafkaesque Koffka","3.2.7","2","0","2","1024","2","48000","-16","experiment","0","5","odd","NA","9757","160318","NA","5384","306327","303316","304324","305326","NA","NA","306327","NA","NA","160319","7757","302300","303817","304825","305827","302265","303300","302171","302265","161319","New experiment","yes","1024"
"<opensesame_plugins.lsl_start.liblsl.LSL_session object at 0x00000249AF4B3C88>","0","black","[0.0, 0.0]","legacy","0","uniform","71","0","1","0","0","71","71","71","71","1","NA","71","NA","0","1","0","71","71","71","71","71","NA","71","71","1","Wed Nov 17 21:43:37 2021","-7","The main experiment item","yes","experiment.osexp","C:/Users/elus/Demant/+Team OMEXP - Article/ISAAR 2021/Data/experiments","no","mono","no","18","no","white","no","Next","1000","no","768","35","1","35","C:/Users/elus/Documents/RecordingLSL_maybefinal/subject-5.csv","5","[<opensesame_plugins.lsl_start.liblsl.LSL_session object at 0x00000249AF4B3C88>]","Kafkaesque Koffka","3.2.7","3","0","2","1024","2","48000","-16","experiment","0","5","odd","NA","9757","160318","NA","5384","310484","307478","308481","309483","NA","NA","310484","NA","NA","160319","7757","306458","307979","308982","309984","306424","307458","306329","306424","161319","New experiment","yes","1024"
"<opensesame_plugins.lsl_start.liblsl.LSL_session object at 0x00000249AF4B3C88>","1","black","[0.0, 0.0]","legacy","0","uniform","72","0","2","0","0","72","72","72","72","2","NA","72","NA","0","2","0","72","72","72","72","72","NA","72","72","2","Wed Nov 17 21:43:37 2021","-6","The main experiment item","yes","experiment.osexp","C:/Users/elus/Demant/+Team OMEXP - Article/ISAAR 2021/Data/experiments","no","mono","no","18","no","white","no","Next","400","no","768","0","2","0","C:/Users/elus/Documents/RecordingLSL_maybefinal/subject-5.csv","10","[<opensesame_plugins.lsl_start.liblsl.LSL_session object at 0x00000249AF4B3C88>]","Kafkaesque Koffka","3.2.7","1","0","2","1024","2","48000","-16","experiment","0","5","odd","NA","9757","310592","NA","5384","315711","312702","313708","314710","NA","NA","315711","NA","NA","310594","7757","311681","313203","314209","315211","311651","312681","310487","311651","311594","New experiment","yes","1024"
"<opensesame_plugins.lsl_start.liblsl.LSL_session object at 0x00000249AF4B3C88>","1","black","[0.0, 0.0]","legacy","0","uniform","73","0","2","0","0","73","73","73","73","2","NA","73","NA","0","2","0","73","73","73","73","73","NA","73","73","2","Wed Nov 17 21:43:37 2021","-6","The main experiment item","yes","experiment.osexp","C:/Users/elus/Demant/+Team OMEXP - Article/ISAAR 2021/Data/experiments","no","mono","no","18","no","white","no","Next","400","no","768","1","2","1","C:/Users/elus/Documents/RecordingLSL_maybefinal/subject-5.csv","10","[<opensesame_plugins.lsl_start.liblsl.LSL_session object at 0x00000249AF4B3C88>]","Kafkaesque Koffka","3.2.7","2","0","2","1024","2","48000","-16","experiment","0","5","odd","NA","9757","310592","NA","5384","319864","316859","317861","318863","NA","NA","319864","NA","NA","310594","7757","315842","317360","318362","319364","315807","316843","315713","315807","311594","New experiment","yes","1024"
"<opensesame_plugins.lsl_start.liblsl.LSL_session object at 0x00000249AF4B3C88>","1","black","[0.0, 0.0]","legacy","0","uniform","74","0","2","0","0","74","74","74","74","2","NA","74","NA","0","2","0","74","74","74","74","74","NA","74","74","2","Wed Nov 17 21:43:37 2021","-6","The main experiment item","yes","experiment.osexp","C:/Users/elus/Demant/+Team OMEXP - Article/ISAAR 2021/Data/experiments","no","mono","no","18","no","white","no","Next","400","no","768","2","2","2","C:/Users/elus/Documents/RecordingLSL_maybefinal/subject-5.csv","10","[<opensesame_plugins.lsl_start.liblsl.LSL_session object at 0x00000249AF4B3C88>]","Kafkaesque Koffka","3.2.7","3","0","2","1024","2","48000","-16","experiment","0","5","odd","NA","9757","310592","NA","5384","324018","321010","322015","323017","NA","NA","324018","NA","NA","310594","7757","319999","321511","322516","323518","319962","321000","319866","319962","311594","New experiment","yes","1024"
"<opensesame_plugins.lsl_start.liblsl.LSL_session object at 0x00000249AF4B3C88>","1","black","[0.0, 0.0]","legacy","0","uniform","75","0","2","0","0","75","75","75","75","2","NA","75","NA","0","2","0","75","75","75","75","75","NA","75","75","2","Wed Nov 17 21:43:37 2021","-7","The main experiment item","yes","experiment.osexp","C:/Users/elus/Demant/+Team OMEXP - Article/ISAAR 2021/Data/experiments","no","mono","no","18","no","white","no","Next","400","no","768","3","2","3","C:/Users/elus/Documents/RecordingLSL_maybefinal/subject-5.csv","10","[<opensesame_plugins.lsl_start.liblsl.LSL_session object at 0x00000249AF4B3C88>]","Kafkaesque Koffka","3.2.7","1","0","2","1024","2","48000","-16","experiment","0","5","odd","NA","9757","310592","NA","5384","328183","325176","326180","327182","NA","NA","328183","NA","NA","310594","7757","324158","325677","326681","327683","324125","325158","324020","324124","311594","New experiment","yes","1024"
"<opensesame_plugins.lsl_start.liblsl.LSL_session object at 0x00000249AF4B3C88>","1","black","[0.0, 0.0]","legacy","0","uniform","76","0","2","0","0","76","76","76","76","2","NA","76","NA","0","2","0","76","76","76","76","76","NA","76","76","2","Wed Nov 17 21:43:37 2021","-7","The main experiment item","yes","experiment.osexp","C:/Users/elus/Demant/+Team OMEXP - Article/ISAAR 2021/Data/experiments","no","mono","no","18","no","white","no","Next","400","no","768","4","2","4","C:/Users/elus/Documents/RecordingLSL_maybefinal/subject-5.csv","10","[<opensesame_plugins.lsl_start.liblsl.LSL_session object at 0x00000249AF4B3C88>]","Kafkaesque Koffka","3.2.7","2","0","2","1024","2","48000","-16","experiment","0","5","odd","NA","9757","310592","NA","5384","332350","329341","330347","331349","NA","NA","332350","NA","NA","310594","7757","328322","329842","330848","331850","328288","329323","328191","328288","311594","New experiment","yes","1024"
"<opensesame_plugins.lsl_start.liblsl.LSL_session object at 0x00000249AF4B3C88>","0","black","[0.0, 0.0]","legacy","0","uniform","77","0","2","0","0","77","77","77","77","2","NA","77","NA","0","2","0","77","77","77","77","77","NA","77","77","2","Wed Nov 17 21:43:37 2021","-7","The main experiment item","yes","experiment.osexp","C:/Users/elus/Demant/+Team OMEXP - Article/ISAAR 2021/Data/experiments","no","mono","no","18","no","white","no","Next","400","no","768","5","2","5","C:/Users/elus/Documents/RecordingLSL_maybefinal/subject-5.csv","10","[<opensesame_plugins.lsl_start.liblsl.LSL_session object at 0x00000249AF4B3C88>]","Kafkaesque Koffka","3.2.7","3","0","2","1024","2","48000","-16","experiment","0","5","odd","NA","9757","310592","NA","5384","336509","333501","334507","335508","NA","NA","336509","NA","NA","310594","7757","332482","334002","335007","336009","332449","333482","332352","332449","311594","New experiment","yes","1024"
"<opensesame_plugins.lsl_start.liblsl.LSL_session object at 0x00000249AF4B3C88>","1","black","[0.0, 0.0]","legacy","0","uniform","78","0","2","0","0","78","78","78","78","2","NA","78","NA","0","2","0","78","78","78","78","78","NA","78","78","2","Wed Nov 17 21:43:37 2021","-6.5","The main experiment item","yes","experiment.osexp","C:/Users/elus/Demant/+Team OMEXP - Article/ISAAR 2021/Data/experiments","no","mono","no","18","no","white","no","Next","400","no","768","6","2","6","C:/Users/elus/Documents/RecordingLSL_maybefinal/subject-5.csv","10","[<opensesame_plugins.lsl_start.liblsl.LSL_session object at 0x00000249AF4B3C88>]","Kafkaesque Koffka","3.2.7","1","0","2","1024","2","48000","-16","experiment","0","5","odd","NA","9757","310592","NA","5384","340673","337665","338670","339672","NA","NA","340673","NA","NA","310594","7757","336645","338166","339171","340173","336616","337646","336511","336616","311594","New experiment","yes","1024"
"<opensesame_plugins.lsl_start.liblsl.LSL_session object at 0x00000249AF4B3C88>","1","black","[0.0, 0.0]","legacy","0","uniform","79","0","2","0","0","79","79","79","79","2","NA","79","NA","0","2","0","79","79","79","79","79","NA","79","79","2","Wed Nov 17 21:43:37 2021","-6.5","The main experiment item","yes","experiment.osexp","C:/Users/elus/Demant/+Team OMEXP - Article/ISAAR 2021/Data/experiments","no","mono","no","18","no","white","no","Next","400","no","768","7","2","7","C:/Users/elus/Documents/RecordingLSL_maybefinal/subject-5.csv","10","[<opensesame_plugins.lsl_start.liblsl.LSL_session object at 0x00000249AF4B3C88>]","Kafkaesque Koffka","3.2.7","2","0","2","1024","2","48000","-16","experiment","0","5","odd","NA","9757","310592","NA","5384","344828","341820","342826","343827","NA","NA","344828","NA","NA","310594","7757","340808","342321","343327","344328","340771","341809","340675","340771","311594","New experiment","yes","1024"
"<opensesame_plugins.lsl_start.liblsl.LSL_session object at 0x00000249AF4B3C88>","1","black","[0.0, 0.0]","legacy","0","uniform","80","0","2","0","0","80","80","80","80","2","NA","80","NA","0","2","0","80","80","80","80","80","NA","80","80","2","Wed Nov 17 21:43:37 2021","-6.5","The main experiment item","yes","experiment.osexp","C:/Users/elus/Demant/+Team OMEXP - Article/ISAAR 2021/Data/experiments","no","mono","no","18","no","white","no","Next","400","no","768","8","2","8","C:/Users/elus/Documents/RecordingLSL_maybefinal/subject-5.csv","10","[<opensesame_plugins.lsl_start.liblsl.LSL_session object at 0x00000249AF4B3C88>]","Kafkaesque Koffka","3.2.7","3","0","2","1024","2","48000","-16","experiment","0","5","odd","NA","9757","310592","NA","5384","348985","345980","346982","347984","NA","NA","348985","NA","NA","310594","7757","344960","346481","347483","348485","344926","345961","344830","344926","311594","New experiment","yes","1024"
"<opensesame_plugins.lsl_start.liblsl.LSL_session object at 0x00000249AF4B3C88>","0","black","[0.0, 0.0]","legacy","0","uniform","81","0","2","0","0","81","81","81","81","2","NA","81","NA","0","2","0","81","81","81","81","81","NA","81","81","2","Wed Nov 17 21:43:37 2021","-7","The main experiment item","yes","experiment.osexp","C:/Users/elus/Demant/+Team OMEXP - Article/ISAAR 2021/Data/experiments","no","mono","no","18","no","white","no","Next","400","no","768","9","2","9","C:/Users/elus/Documents/RecordingLSL_maybefinal/subject-5.csv","10","[<opensesame_plugins.lsl_start.liblsl.LSL_session object at 0x00000249AF4B3C88>]","Kafkaesque Koffka","3.2.7","1","0","2","1024","2","48000","-16","experiment","0","5","odd","NA","9757","310592","NA","5384","353136","350131","351133","352135","NA","NA","353136","NA","NA","310594","7757","349119","350632","351634","352636","349080","350120","348987","349080","311594","New experiment","yes","1024"
"<opensesame_plugins.lsl_start.liblsl.LSL_session object at 0x00000249AF4B3C88>","1","black","[0.0, 0.0]","legacy","0","uniform","82","0","2","0","0","82","82","82","82","2","NA","82","NA","0","2","0","82","82","82","82","82","NA","82","82","2","Wed Nov 17 21:43:37 2021","-6.5","The main experiment item","yes","experiment.osexp","C:/Users/elus/Demant/+Team OMEXP - Article/ISAAR 2021/Data/experiments","no","mono","no","18","no","white","no","Next","400","no","768","10","2","10","C:/Users/elus/Documents/RecordingLSL_maybefinal/subject-5.csv","10","[<opensesame_plugins.lsl_start.liblsl.LSL_session object at 0x00000249AF4B3C88>]","Kafkaesque Koffka","3.2.7","2","0","2","1024","2","48000","-16","experiment","0","5","odd","NA","9757","310592","NA","5384","357289","354280","355285","356288","NA","NA","357289","NA","NA","310594","7757","353270","354781","355787","356789","353231","354270","353138","353231","311594","New experiment","yes","1024"
"<opensesame_plugins.lsl_start.liblsl.LSL_session object at 0x00000249AF4B3C88>","1","black","[0.0, 0.0]","legacy","0","uniform","83","0","2","0","0","83","83","83","83","2","NA","83","NA","0","2","0","83","83","83","83","83","NA","83","83","2","Wed Nov 17 21:43:37 2021","-6.5","The main experiment item","yes","experiment.osexp","C:/Users/elus/Demant/+Team OMEXP - Article/ISAAR 2021/Data/experiments","no","mono","no","18","no","white","no","Next","400","no","768","11","2","11","C:/Users/elus/Documents/RecordingLSL_maybefinal/subject-5.csv","10","[<opensesame_plugins.lsl_start.liblsl.LSL_session object at 0x00000249AF4B3C88>]","Kafkaesque Koffka","3.2.7","3","0","2","1024","2","48000","-16","experiment","0","5","odd","NA","9757","310592","NA","5384","361449","358440","359446","360448","NA","NA","361449","NA","NA","310594","7757","357422","358941","359947","360949","357389","358422","357293","357389","311594","New experiment","yes","1024"
"<opensesame_plugins.lsl_start.liblsl.LSL_session object at 0x00000249AF4B3C88>","1","black","[0.0, 0.0]","legacy","0","uniform","84","0","2","0","0","84","84","84","84","2","NA","84","NA","0","2","0","84","84","84","84","84","NA","84","84","2","Wed Nov 17 21:43:37 2021","-6.5","The main experiment item","yes","experiment.osexp","C:/Users/elus/Demant/+Team OMEXP - Article/ISAAR 2021/Data/experiments","no","mono","no","18","no","white","no","Next","400","no","768","12","2","12","C:/Users/elus/Documents/RecordingLSL_maybefinal/subject-5.csv","10","[<opensesame_plugins.lsl_start.liblsl.LSL_session object at 0x00000249AF4B3C88>]","Kafkaesque Koffka","3.2.7","1","0","2","1024","2","48000","-16","experiment","0","5","odd","NA","9757","310592","NA","5384","365600","362591","363597","364599","NA","NA","365600","NA","NA","310594","7757","361578","363092","364098","365100","361543","362579","361451","361543","311594","New experiment","yes","1024"
"<opensesame_plugins.lsl_start.liblsl.LSL_session object at 0x00000249AF4B3C88>","1","black","[0.0, 0.0]","legacy","0","uniform","85","0","2","0","0","85","85","85","85","2","NA","85","NA","0","2","0","85","85","85","85","85","NA","85","85","2","Wed Nov 17 21:43:37 2021","-7","The main experiment item","yes","experiment.osexp","C:/Users/elus/Demant/+Team OMEXP - Article/ISAAR 2021/Data/experiments","no","mono","no","18","no","white","no","Next","400","no","768","13","2","13","C:/Users/elus/Documents/RecordingLSL_maybefinal/subject-5.csv","10","[<opensesame_plugins.lsl_start.liblsl.LSL_session object at 0x00000249AF4B3C88>]","Kafkaesque Koffka","3.2.7","2","0","2","1024","2","48000","-16","experiment","0","5","odd","NA","9757","310592","NA","5384","369760","366752","367757","368759","NA","NA","369760","NA","NA","310594","7757","365733","367253","368258","369260","365699","366733","365602","365699","311594","New experiment","yes","1024"
"<opensesame_plugins.lsl_start.liblsl.LSL_session object at 0x00000249AF4B3C88>","1","black","[0.0, 0.0]","legacy","0","uniform","86","0","2","0","0","86","86","86","86","2","NA","86","NA","0","2","0","86","86","86","86","86","NA","86","86","2","Wed Nov 17 21:43:37 2021","-7","The main experiment item","yes","experiment.osexp","C:/Users/elus/Demant/+Team OMEXP - Article/ISAAR 2021/Data/experiments","no","mono","no","18","no","white","no","Next","400","no","768","14","2","14","C:/Users/elus/Documents/RecordingLSL_maybefinal/subject-5.csv","10","[<opensesame_plugins.lsl_start.liblsl.LSL_session object at 0x00000249AF4B3C88>]","Kafkaesque Koffka","3.2.7","3","0","2","1024","2","48000","-16","experiment","0","5","odd","NA","9757","310592","NA","5384","373914","370909","371911","372913","NA","NA","373914","NA","NA","310594","7757","369894","371410","372412","373414","369858","370894","369762","369858","311594","New experiment","yes","1024"
"<opensesame_plugins.lsl_start.liblsl.LSL_session object at 0x00000249AF4B3C88>","1","black","[0.0, 0.0]","legacy","0","uniform","87","0","2","0","0","87","87","87","87","2","NA","87","NA","0","2","0","87","87","87","87","87","NA","87","87","2","Wed Nov 17 21:43:37 2021","-7","The main experiment item","yes","experiment.osexp","C:/Users/elus/Demant/+Team OMEXP - Article/ISAAR 2021/Data/experiments","no","mono","no","18","no","white","no","Next","400","no","768","15","2","15","C:/Users/elus/Documents/RecordingLSL_maybefinal/subject-5.csv","10","[<opensesame_plugins.lsl_start.liblsl.LSL_session object at 0x00000249AF4B3C88>]","Kafkaesque Koffka","3.2.7","1","0","2","1024","2","48000","-16","experiment","0","5","odd","NA","9757","310592","NA","5384","378067","375060","376064","377066","NA","NA","378067","NA","NA","310594","7757","374048","375561","376565","377567","374011","375048","373916","374011","311594","New experiment","yes","1024"
"<opensesame_plugins.lsl_start.liblsl.LSL_session object at 0x00000249AF4B3C88>","1","black","[0.0, 0.0]","legacy","0","uniform","88","0","2","0","0","88","88","88","88","2","NA","88","NA","0","2","0","88","88","88","88","88","NA","88","88","2","Wed Nov 17 21:43:37 2021","-7.5","The main experiment item","yes","experiment.osexp","C:/Users/elus/Demant/+Team OMEXP - Article/ISAAR 2021/Data/experiments","no","mono","no","18","no","white","no","Next","400","no","768","16","2","16","C:/Users/elus/Documents/RecordingLSL_maybefinal/subject-5.csv","10","[<opensesame_plugins.lsl_start.liblsl.LSL_session object at 0x00000249AF4B3C88>]","Kafkaesque Koffka","3.2.7","2","0","2","1024","2","48000","-16","experiment","0","5","odd","NA","9757","310592","NA","5384","382219","379211","380216","381218","NA","NA","382219","NA","NA","310594","7757","378200","379712","380717","381719","378164","379200","378071","378164","311594","New experiment","yes","1024"
"<opensesame_plugins.lsl_start.liblsl.LSL_session object at 0x00000249AF4B3C88>","1","black","[0.0, 0.0]","legacy","0","uniform","89","0","2","0","0","89","89","89","89","2","NA","89","NA","0","2","0","89","89","89","89","89","NA","89","89","2","Wed Nov 17 21:43:37 2021","-7.5","The main experiment item","yes","experiment.osexp","C:/Users/elus/Demant/+Team OMEXP - Article/ISAAR 2021/Data/experiments","no","mono","no","18","no","white","no","Next","400","no","768","17","2","17","C:/Users/elus/Documents/RecordingLSL_maybefinal/subject-5.csv","10","[<opensesame_plugins.lsl_start.liblsl.LSL_session object at 0x00000249AF4B3C88>]","Kafkaesque Koffka","3.2.7","3","0","2","1024","2","48000","-16","experiment","0","5","odd","NA","9757","310592","NA","5384","386377","383369","384374","385376","NA","NA","386377","NA","NA","310594","7757","382352","383870","384875","385877","382320","383352","382221","382320","311594","New experiment","yes","1024"
"<opensesame_plugins.lsl_start.liblsl.LSL_session object at 0x00000249AF4B3C88>","1","black","[0.0, 0.0]","legacy","0","uniform","90","0","2","0","0","90","90","90","90","2","NA","90","NA","0","2","0","90","90","90","90","90","NA","90","90","2","Wed Nov 17 21:43:37 2021","-7.5","The main experiment item","yes","experiment.osexp","C:/Users/elus/Demant/+Team OMEXP - Article/ISAAR 2021/Data/experiments","no","mono","no","18","no","white","no","Next","400","no","768","18","2","18","C:/Users/elus/Documents/RecordingLSL_maybefinal/subject-5.csv","10","[<opensesame_plugins.lsl_start.liblsl.LSL_session object at 0x00000249AF4B3C88>]","Kafkaesque Koffka","3.2.7","1","0","2","1024","2","48000","-16","experiment","0","5","odd","NA","9757","310592","NA","5384","390535","387530","388532","389534","NA","NA","390535","NA","NA","310594","7757","386510","388031","389033","390035","386474","387512","386379","386474","311594","New experiment","yes","1024"
"<opensesame_plugins.lsl_start.liblsl.LSL_session object at 0x00000249AF4B3C88>","0","black","[0.0, 0.0]","legacy","0","uniform","91","0","2","0","0","91","91","91","91","2","NA","91","NA","0","2","0","91","91","91","91","91","NA","91","91","2","Wed Nov 17 21:43:37 2021","-8","The main experiment item","yes","experiment.osexp","C:/Users/elus/Demant/+Team OMEXP - Article/ISAAR 2021/Data/experiments","no","mono","no","18","no","white","no","Next","400","no","768","19","2","19","C:/Users/elus/Documents/RecordingLSL_maybefinal/subject-5.csv","10","[<opensesame_plugins.lsl_start.liblsl.LSL_session object at 0x00000249AF4B3C88>]","Kafkaesque Koffka","3.2.7","2","0","2","1024","2","48000","-16","experiment","0","5","odd","NA","9757","310592","NA","5384","394688","391680","392685","393687","NA","NA","394688","NA","NA","310594","7757","390668","392181","393186","394188","390631","391670","390537","390631","311594","New experiment","yes","1024"
"<opensesame_plugins.lsl_start.liblsl.LSL_session object at 0x00000249AF4B3C88>","1","black","[0.0, 0.0]","legacy","0","uniform","92","0","2","0","0","92","92","92","92","2","NA","92","NA","0","2","0","92","92","92","92","92","NA","92","92","2","Wed Nov 17 21:43:37 2021","-7.5","The main experiment item","yes","experiment.osexp","C:/Users/elus/Demant/+Team OMEXP - Article/ISAAR 2021/Data/experiments","no","mono","no","18","no","white","no","Next","400","no","768","20","2","20","C:/Users/elus/Documents/RecordingLSL_maybefinal/subject-5.csv","10","[<opensesame_plugins.lsl_start.liblsl.LSL_session object at 0x00000249AF4B3C88>]","Kafkaesque Koffka","3.2.7","3","0","2","1024","2","48000","-16","experiment","0","5","odd","NA","9757","310592","NA","5384","398849","395839","396846","397848","NA","NA","398849","NA","NA","310594","7757","394819","396340","397347","398349","394785","395819","394690","394785","311594","New experiment","yes","1024"
"<opensesame_plugins.lsl_start.liblsl.LSL_session object at 0x00000249AF4B3C88>","1","black","[0.0, 0.0]","legacy","0","uniform","93","0","2","0","0","93","93","93","93","2","NA","93","NA","0","2","0","93","93","93","93","93","NA","93","93","2","Wed Nov 17 21:43:37 2021","-7.5","The main experiment item","yes","experiment.osexp","C:/Users/elus/Demant/+Team OMEXP - Article/ISAAR 2021/Data/experiments","no","mono","no","18","no","white","no","Next","400","no","768","21","2","21","C:/Users/elus/Documents/RecordingLSL_maybefinal/subject-5.csv","10","[<opensesame_plugins.lsl_start.liblsl.LSL_session object at 0x00000249AF4B3C88>]","Kafkaesque Koffka","3.2.7","1","0","2","1024","2","48000","-16","experiment","0","5","odd","NA","9757","310592","NA","5384","403010","400002","401007","402009","NA","NA","403010","NA","NA","310594","7757","398980","400503","401508","402510","398946","399981","398853","398946","311594","New experiment","yes","1024"
"<opensesame_plugins.lsl_start.liblsl.LSL_session object at 0x00000249AF4B3C88>","1","black","[0.0, 0.0]","legacy","0","uniform","94","0","2","0","0","94","94","94","94","2","NA","94","NA","0","2","0","94","94","94","94","94","NA","94","94","2","Wed Nov 17 21:43:37 2021","-7.5","The main experiment item","yes","experiment.osexp","C:/Users/elus/Demant/+Team OMEXP - Article/ISAAR 2021/Data/experiments","no","mono","no","18","no","white","no","Next","400","no","768","22","2","22","C:/Users/elus/Documents/RecordingLSL_maybefinal/subject-5.csv","10","[<opensesame_plugins.lsl_start.liblsl.LSL_session object at 0x00000249AF4B3C88>]","Kafkaesque Koffka","3.2.7","2","0","2","1024","2","48000","-16","experiment","0","5","odd","NA","9757","310592","NA","5384","407165","404160","405162","406164","NA","NA","407165","NA","NA","310594","7757","403141","404661","405663","406665","403106","404142","403012","403106","311594","New experiment","yes","1024"
"<opensesame_plugins.lsl_start.liblsl.LSL_session object at 0x00000249AF4B3C88>","1","black","[0.0, 0.0]","legacy","0","uniform","95","0","2","0","0","95","95","95","95","2","NA","95","NA","0","2","0","95","95","95","95","95","NA","95","95","2","Wed Nov 17 21:43:37 2021","-8","The main experiment item","yes","experiment.osexp","C:/Users/elus/Demant/+Team OMEXP - Article/ISAAR 2021/Data/experiments","no","mono","no","18","no","white","no","Next","400","no","768","23","2","23","C:/Users/elus/Documents/RecordingLSL_maybefinal/subject-5.csv","10","[<opensesame_plugins.lsl_start.liblsl.LSL_session object at 0x00000249AF4B3C88>]","Kafkaesque Koffka","3.2.7","3","0","2","1024","2","48000","-16","experiment","0","5","odd","NA","9757","310592","NA","5384","411330","408316","409327","410329","NA","NA","411330","NA","NA","310594","7757","407298","408817","409828","410830","407263","408298","407167","407263","311594","New experiment","yes","1024"
"<opensesame_plugins.lsl_start.liblsl.LSL_session object at 0x00000249AF4B3C88>","0","black","[0.0, 0.0]","legacy","0","uniform","96","0","2","0","0","96","96","96","96","2","NA","96","NA","0","2","0","96","96","96","96","96","NA","96","96","2","Wed Nov 17 21:43:37 2021","-8","The main experiment item","yes","experiment.osexp","C:/Users/elus/Demant/+Team OMEXP - Article/ISAAR 2021/Data/experiments","no","mono","no","18","no","white","no","Next","400","no","768","24","2","24","C:/Users/elus/Documents/RecordingLSL_maybefinal/subject-5.csv","10","[<opensesame_plugins.lsl_start.liblsl.LSL_session object at 0x00000249AF4B3C88>]","Kafkaesque Koffka","3.2.7","1","0","2","1024","2","48000","-16","experiment","0","5","odd","NA","9757","310592","NA","5384","415485","412480","413482","414484","NA","NA","415485","NA","NA","310594","7757","411461","412981","413983","414985","411427","412464","411332","411427","311594","New experiment","yes","1024"
"<opensesame_plugins.lsl_start.liblsl.LSL_session object at 0x00000249AF4B3C88>","1","black","[0.0, 0.0]","legacy","0","uniform","97","0","2","0","0","97","97","97","97","2","NA","97","NA","0","2","0","97","97","97","97","97","NA","97","97","2","Wed Nov 17 21:43:37 2021","-7.5","The main experiment item","yes","experiment.osexp","C:/Users/elus/Demant/+Team OMEXP - Article/ISAAR 2021/Data/experiments","no","mono","no","18","no","white","no","Next","400","no","768","25","2","25","C:/Users/elus/Documents/RecordingLSL_maybefinal/subject-5.csv","10","[<opensesame_plugins.lsl_start.liblsl.LSL_session object at 0x00000249AF4B3C88>]","Kafkaesque Koffka","3.2.7","2","0","2","1024","2","48000","-16","experiment","0","5","odd","NA","9757","310592","NA","5384","419638","416630","417634","418636","NA","NA","419638","NA","NA","310594","7757","415618","417131","418135","419138","415582","416619","415487","415582","311594","New experiment","yes","1024"
"<opensesame_plugins.lsl_start.liblsl.LSL_session object at 0x00000249AF4B3C88>","1","black","[0.0, 0.0]","legacy","0","uniform","98","0","2","0","0","98","98","98","98","2","NA","98","NA","0","2","0","98","98","98","98","98","NA","98","98","2","Wed Nov 17 21:43:37 2021","-7.5","The main experiment item","yes","experiment.osexp","C:/Users/elus/Demant/+Team OMEXP - Article/ISAAR 2021/Data/experiments","no","mono","no","18","no","white","no","Next","400","no","768","26","2","26","C:/Users/elus/Documents/RecordingLSL_maybefinal/subject-5.csv","10","[<opensesame_plugins.lsl_start.liblsl.LSL_session object at 0x00000249AF4B3C88>]","Kafkaesque Koffka","3.2.7","3","0","2","1024","2","48000","-16","experiment","0","5","odd","NA","9757","310592","NA","5384","423794","420790","421791","422793","NA","NA","423794","NA","NA","310594","7757","419771","421290","422292","423294","419735","420771","419640","419735","311594","New experiment","yes","1024"
"<opensesame_plugins.lsl_start.liblsl.LSL_session object at 0x00000249AF4B3C88>","1","black","[0.0, 0.0]","legacy","0","uniform","99","0","2","0","0","99","99","99","99","2","NA","99","NA","0","2","0","99","99","99","99","99","NA","99","99","2","Wed Nov 17 21:43:37 2021","-7.5","The main experiment item","yes","experiment.osexp","C:/Users/elus/Demant/+Team OMEXP - Article/ISAAR 2021/Data/experiments","no","mono","no","18","no","white","no","Next","400","no","768","27","2","27","C:/Users/elus/Documents/RecordingLSL_maybefinal/subject-5.csv","10","[<opensesame_plugins.lsl_start.liblsl.LSL_session object at 0x00000249AF4B3C88>]","Kafkaesque Koffka","3.2.7","1","0","2","1024","2","48000","-16","experiment","0","5","odd","NA","9757","310592","NA","5384","427945","424940","425942","426944","NA","NA","427945","NA","NA","310594","7757","423926","425441","426443","427445","423889","424928","423796","423889","311594","New experiment","yes","1024"
"<opensesame_plugins.lsl_start.liblsl.LSL_session object at 0x00000249AF4B3C88>","0","black","[0.0, 0.0]","legacy","0","uniform","100","0","2","0","0","100","100","100","100","2","NA","100","NA","0","2","0","100","100","100","100","100","NA","100","100","2","Wed Nov 17 21:43:37 2021","-8","The main experiment item","yes","experiment.osexp","C:/Users/elus/Demant/+Team OMEXP - Article/ISAAR 2021/Data/experiments","no","mono","no","18","no","white","no","Next","400","no","768","28","2","28","C:/Users/elus/Documents/RecordingLSL_maybefinal/subject-5.csv","10","[<opensesame_plugins.lsl_start.liblsl.LSL_session object at 0x00000249AF4B3C88>]","Kafkaesque Koffka","3.2.7","2","0","2","1024","2","48000","-16","experiment","0","5","odd","NA","9757","310592","NA","5384","432097","429090","430094","431096","NA","NA","432097","NA","NA","310594","7757","428079","429591","430595","431597","428040","429079","427947","428040","311594","New experiment","yes","1024"
"<opensesame_plugins.lsl_start.liblsl.LSL_session object at 0x00000249AF4B3C88>","1","black","[0.0, 0.0]","legacy","0","uniform","101","0","2","0","0","101","101","101","101","2","NA","101","NA","0","2","0","101","101","101","101","101","NA","101","101","2","Wed Nov 17 21:43:37 2021","-7.5","The main experiment item","yes","experiment.osexp","C:/Users/elus/Demant/+Team OMEXP - Article/ISAAR 2021/Data/experiments","no","mono","no","18","no","white","no","Next","400","no","768","29","2","29","C:/Users/elus/Documents/RecordingLSL_maybefinal/subject-5.csv","10","[<opensesame_plugins.lsl_start.liblsl.LSL_session object at 0x00000249AF4B3C88>]","Kafkaesque Koffka","3.2.7","3","0","2","1024","2","48000","-16","experiment","0","5","odd","NA","9757","310592","NA","5384","436255","433250","434252","435254","NA","NA","436255","NA","NA","310594","7757","432231","433751","434753","435755","432195","433232","432099","432195","311594","New experiment","yes","1024"
"<opensesame_plugins.lsl_start.liblsl.LSL_session object at 0x00000249AF4B3C88>","1","black","[0.0, 0.0]","legacy","0","uniform","102","0","2","0","0","102","102","102","102","2","NA","102","NA","0","2","0","102","102","102","102","102","NA","102","102","2","Wed Nov 17 21:43:37 2021","-7.5","The main experiment item","yes","experiment.osexp","C:/Users/elus/Demant/+Team OMEXP - Article/ISAAR 2021/Data/experiments","no","mono","no","18","no","white","no","Next","400","no","768","30","2","30","C:/Users/elus/Documents/RecordingLSL_maybefinal/subject-5.csv","10","[<opensesame_plugins.lsl_start.liblsl.LSL_session object at 0x00000249AF4B3C88>]","Kafkaesque Koffka","3.2.7","1","0","2","1024","2","48000","-16","experiment","0","5","odd","NA","9757","310592","NA","5384","440414","437409","438411","439413","NA","NA","440414","NA","NA","310594","7757","436391","437910","438912","439914","436353","437392","436258","436353","311594","New experiment","yes","1024"
"<opensesame_plugins.lsl_start.liblsl.LSL_session object at 0x00000249AF4B3C88>","1","black","[0.0, 0.0]","legacy","0","uniform","103","0","2","0","0","103","103","103","103","2","NA","103","NA","0","2","0","103","103","103","103","103","NA","103","103","2","Wed Nov 17 21:43:37 2021","-7.5","The main experiment item","yes","experiment.osexp","C:/Users/elus/Demant/+Team OMEXP - Article/ISAAR 2021/Data/experiments","no","mono","no","18","no","white","no","Next","400","no","768","31","2","31","C:/Users/elus/Documents/RecordingLSL_maybefinal/subject-5.csv","10","[<opensesame_plugins.lsl_start.liblsl.LSL_session object at 0x00000249AF4B3C88>]","Kafkaesque Koffka","3.2.7","2","0","2","1024","2","48000","-16","experiment","0","5","odd","NA","9757","310592","NA","5384","444565","441560","442562","443564","NA","NA","444565","NA","NA","310594","7757","440546","442061","443063","444065","440510","441548","440416","440510","311594","New experiment","yes","1024"
