"LSL","answer","background","calibration","canvas_backend","compensation","coordinates","count_change","count_cond_loop","count_condition","count_end","count_experiment","count_generate_answer","count_neutral","count_neutral_2","count_neutral_3","count_new_adaptive_init","count_new_calibration_light","count_new_logger","count_new_lsl_start_1","count_new_lsl_stop","count_new_sketchpad","count_new_sketchpad_1","count_new_sketchpad_2","count_sig1","count_sig2","count_sig3","count_sound_generation","count_stimulus","count_tracking","count_trial","count_trial_loop","datetime","depth","description","disable_garbage_collection","experiment_file","experiment_path","font_bold","font_family","font_italic","font_size","font_underline","foreground","form_clicks","form_response","frequency","fullscreen","height","live_row","live_row_cond_loop","live_row_trial_loop","logfile","mod_freq","notifiers","opensesame_codename","opensesame_version","position","repeat_cycle","round_decimals","sound_buf_size","sound_channels","sound_freq","sound_sample_size","start","stop","subject_nr","subject_parity","time_change","time_cond_loop","time_condition","time_end","time_experiment","time_generate_answer","time_neutral","time_neutral_2","time_neutral_3","time_new_adaptive_init","time_new_calibration_light","time_new_logger","time_new_lsl_start_1","time_new_lsl_stop","time_new_sketchpad","time_new_sketchpad_1","time_new_sketchpad_2","time_sig1","time_sig2","time_sig3","time_sound_generation","time_stimulus","time_tracking","time_trial","time_trial_loop","title","uniform_coordinates","width"
"<opensesame_plugins.lsl_start.liblsl.LSL_session object at 0x000001FC3E7A3CC0>","1","black","[0.0, 0.0]","legacy","0","uniform","0","0","0","0","0","0","0","0","0","0","NA","0","NA","0","0","0","0","0","0","0","0","NA","0","0","0","Wed Nov 17 18:00:17 2021","-6","The main experiment item","yes","experiment.osexp","C:/Users/elus/Demant/+Team OMEXP - Article/ISAAR 2021/Data/experiments","no","mono","no","18","no","white","no","Next","400","no","768","0","0","0","C:/Users/elus/Documents/RecordingLSL_maybefinal/subject-4.csv","5","[<opensesame_plugins.lsl_start.liblsl.LSL_session object at 0x000001FC3E7A3CC0>]","Kafkaesque Koffka","3.2.7","1","0","2","1024","2","48000","-16","experiment","0","4","even","NA","10108","10136","NA","5871","15238","12233","13235","14237","NA","NA","15238","NA","NA","10138","8108","11225","12734","13736","14738","11184","12225","NA","11182","11138","New experiment","yes","1024"
"<opensesame_plugins.lsl_start.liblsl.LSL_session object at 0x000001FC3E7A3CC0>","1","black","[0.0, 0.0]","legacy","0","uniform","1","0","0","0","0","1","1","1","1","0","NA","1","NA","0","0","0","1","1","1","1","1","NA","1","1","0","Wed Nov 17 18:00:17 2021","-6","The main experiment item","yes","experiment.osexp","C:/Users/elus/Demant/+Team OMEXP - Article/ISAAR 2021/Data/experiments","no","mono","no","18","no","white","no","Next","400","no","768","1","0","1","C:/Users/elus/Documents/RecordingLSL_maybefinal/subject-4.csv","5","[<opensesame_plugins.lsl_start.liblsl.LSL_session object at 0x000001FC3E7A3CC0>]","Kafkaesque Koffka","3.2.7","2","0","2","1024","2","48000","-16","experiment","0","4","even","NA","10108","10136","NA","5871","19374","16369","17371","18373","NA","NA","19374","NA","NA","10138","8108","15358","16870","17872","18874","15326","16358","15243","15326","11138","New experiment","yes","1024"
"<opensesame_plugins.lsl_start.liblsl.LSL_session object at 0x000001FC3E7A3CC0>","1","black","[0.0, 0.0]","legacy","0","uniform","2","0","0","0","0","2","2","2","2","0","NA","2","NA","0","0","0","2","2","2","2","2","NA","2","2","0","Wed Nov 17 18:00:17 2021","-6","The main experiment item","yes","experiment.osexp","C:/Users/elus/Demant/+Team OMEXP - Article/ISAAR 2021/Data/experiments","no","mono","no","18","no","white","no","Next","400","no","768","2","0","2","C:/Users/elus/Documents/RecordingLSL_maybefinal/subject-4.csv","5","[<opensesame_plugins.lsl_start.liblsl.LSL_session object at 0x000001FC3E7A3CC0>]","Kafkaesque Koffka","3.2.7","3","0","2","1024","2","48000","-16","experiment","0","4","even","NA","10108","10136","NA","5871","23514","20509","21511","22513","NA","NA","23514","NA","NA","10138","8108","19494","21010","22012","23014","19463","20494","19376","19462","11138","New experiment","yes","1024"
"<opensesame_plugins.lsl_start.liblsl.LSL_session object at 0x000001FC3E7A3CC0>","1","black","[0.0, 0.0]","legacy","0","uniform","3","0","0","0","0","3","3","3","3","0","NA","3","NA","0","0","0","3","3","3","3","3","NA","3","3","0","Wed Nov 17 18:00:17 2021","-7","The main experiment item","yes","experiment.osexp","C:/Users/elus/Demant/+Team OMEXP - Article/ISAAR 2021/Data/experiments","no","mono","no","18","no","white","no","Next","400","no","768","3","0","3","C:/Users/elus/Documents/RecordingLSL_maybefinal/subject-4.csv","5","[<opensesame_plugins.lsl_start.liblsl.LSL_session object at 0x000001FC3E7A3CC0>]","Kafkaesque Koffka","3.2.7","1","0","2","1024","2","48000","-16","experiment","0","4","even","NA","10108","10136","NA","5871","27652","24647","25649","26651","NA","NA","27652","NA","NA","10138","8108","23639","25148","26150","27152","23606","24639","23516","23606","11138","New experiment","yes","1024"
"<opensesame_plugins.lsl_start.liblsl.LSL_session object at 0x000001FC3E7A3CC0>","1","black","[0.0, 0.0]","legacy","0","uniform","4","0","0","0","0","4","4","4","4","0","NA","4","NA","0","0","0","4","4","4","4","4","NA","4","4","0","Wed Nov 17 18:00:17 2021","-7","The main experiment item","yes","experiment.osexp","C:/Users/elus/Demant/+Team OMEXP - Article/ISAAR 2021/Data/experiments","no","mono","no","18","no","white","no","Next","400","no","768","4","0","4","C:/Users/elus/Documents/RecordingLSL_maybefinal/subject-4.csv","5","[<opensesame_plugins.lsl_start.liblsl.LSL_session object at 0x000001FC3E7A3CC0>]","Kafkaesque Koffka","3.2.7","2","0","2","1024","2","48000","-16","experiment","0","4","even","NA","10108","10136","NA","5871","31783","28777","29779","30782","NA","NA","31783","NA","NA","10138","8108","27762","29278","30280","31283","27733","28762","27654","27732","11138","New experiment","yes","1024"
"<opensesame_plugins.lsl_start.liblsl.LSL_session object at 0x000001FC3E7A3CC0>","1","black","[0.0, 0.0]","legacy","0","uniform","5","0","0","0","0","5","5","5","5","0","NA","5","NA","0","0","0","5","5","5","5","5","NA","5","5","0","Wed Nov 17 18:00:17 2021","-7","The main experiment item","yes","experiment.osexp","C:/Users/elus/Demant/+Team OMEXP - Article/ISAAR 2021/Data/experiments","no","mono","no","18","no","white","no","Next","400","no","768","5","0","5","C:/Users/elus/Documents/RecordingLSL_maybefinal/subject-4.csv","5","[<opensesame_plugins.lsl_start.liblsl.LSL_session object at 0x000001FC3E7A3CC0>]","Kafkaesque Koffka","3.2.7","3","0","2","1024","2","48000","-16","experiment","0","4","even","NA","10108","10136","NA","5871","35919","32908","33916","34918","NA","NA","35919","NA","NA","10138","8108","31893","33415","34417","35419","31866","32893","31787","31866","11138","New experiment","yes","1024"
"<opensesame_plugins.lsl_start.liblsl.LSL_session object at 0x000001FC3E7A3CC0>","1","black","[0.0, 0.0]","legacy","0","uniform","6","0","0","0","0","6","6","6","6","0","NA","6","NA","0","0","0","6","6","6","6","6","NA","6","6","0","Wed Nov 17 18:00:17 2021","-8","The main experiment item","yes","experiment.osexp","C:/Users/elus/Demant/+Team OMEXP - Article/ISAAR 2021/Data/experiments","no","mono","no","18","no","white","no","Next","400","no","768","6","0","6","C:/Users/elus/Documents/RecordingLSL_maybefinal/subject-4.csv","5","[<opensesame_plugins.lsl_start.liblsl.LSL_session object at 0x000001FC3E7A3CC0>]","Kafkaesque Koffka","3.2.7","1","0","2","1024","2","48000","-16","experiment","0","4","even","NA","10108","10136","NA","5871","40068","37057","38059","39061","NA","NA","40068","NA","NA","10138","8108","36046","37558","38560","39568","36015","37046","35921","36015","11138","New experiment","yes","1024"
"<opensesame_plugins.lsl_start.liblsl.LSL_session object at 0x000001FC3E7A3CC0>","0","black","[0.0, 0.0]","legacy","0","uniform","7","0","0","0","0","7","7","7","7","0","NA","7","NA","0","0","0","7","7","7","7","7","NA","7","7","0","Wed Nov 17 18:00:17 2021","-8","The main experiment item","yes","experiment.osexp","C:/Users/elus/Demant/+Team OMEXP - Article/ISAAR 2021/Data/experiments","no","mono","no","18","no","white","no","Next","400","no","768","7","0","7","C:/Users/elus/Documents/RecordingLSL_maybefinal/subject-4.csv","5","[<opensesame_plugins.lsl_start.liblsl.LSL_session object at 0x000001FC3E7A3CC0>]","Kafkaesque Koffka","3.2.7","2","0","2","1024","2","48000","-16","experiment","0","4","even","NA","10108","10136","NA","5871","44193","41188","42190","43192","NA","NA","44193","NA","NA","10138","8108","40176","41689","42691","43693","40147","41176","40070","40147","11138","New experiment","yes","1024"
"<opensesame_plugins.lsl_start.liblsl.LSL_session object at 0x000001FC3E7A3CC0>","1","black","[0.0, 0.0]","legacy","0","uniform","8","0","0","0","0","8","8","8","8","0","NA","8","NA","0","0","0","8","8","8","8","8","NA","8","8","0","Wed Nov 17 18:00:17 2021","-7.5","The main experiment item","yes","experiment.osexp","C:/Users/elus/Demant/+Team OMEXP - Article/ISAAR 2021/Data/experiments","no","mono","no","18","no","white","no","Next","400","no","768","8","0","8","C:/Users/elus/Documents/RecordingLSL_maybefinal/subject-4.csv","5","[<opensesame_plugins.lsl_start.liblsl.LSL_session object at 0x000001FC3E7A3CC0>]","Kafkaesque Koffka","3.2.7","3","0","2","1024","2","48000","-16","experiment","0","4","even","NA","10108","10136","NA","5871","48333","45327","46330","47332","NA","NA","48333","NA","NA","10138","8108","44317","45828","46831","47833","44284","45317","44195","44284","11138","New experiment","yes","1024"
"<opensesame_plugins.lsl_start.liblsl.LSL_session object at 0x000001FC3E7A3CC0>","1","black","[0.0, 0.0]","legacy","0","uniform","9","0","0","0","0","9","9","9","9","0","NA","9","NA","0","0","0","9","9","9","9","9","NA","9","9","0","Wed Nov 17 18:00:17 2021","-7.5","The main experiment item","yes","experiment.osexp","C:/Users/elus/Demant/+Team OMEXP - Article/ISAAR 2021/Data/experiments","no","mono","no","18","no","white","no","Next","400","no","768","9","0","9","C:/Users/elus/Documents/RecordingLSL_maybefinal/subject-4.csv","5","[<opensesame_plugins.lsl_start.liblsl.LSL_session object at 0x000001FC3E7A3CC0>]","Kafkaesque Koffka","3.2.7","1","0","2","1024","2","48000","-16","experiment","0","4","even","NA","10108","10136","NA","5871","52465","49459","50461","51464","NA","NA","52465","NA","NA","10138","8108","48443","49960","50962","51965","48415","49443","48335","48414","11138","New experiment","yes","1024"
"<opensesame_plugins.lsl_start.liblsl.LSL_session object at 0x000001FC3E7A3CC0>","1","black","[0.0, 0.0]","legacy","0","uniform","10","0","0","0","0","10","10","10","10","0","NA","10","NA","0","0","0","10","10","10","10","10","NA","10","10","0","Wed Nov 17 18:00:17 2021","-7.5","The main experiment item","yes","experiment.osexp","C:/Users/elus/Demant/+Team OMEXP - Article/ISAAR 2021/Data/experiments","no","mono","no","18","no","white","no","Next","400","no","768","10","0","10","C:/Users/elus/Documents/RecordingLSL_maybefinal/subject-4.csv","5","[<opensesame_plugins.lsl_start.liblsl.LSL_session object at 0x000001FC3E7A3CC0>]","Kafkaesque Koffka","3.2.7","2","0","2","1024","2","48000","-16","experiment","0","4","even","NA","10108","10136","NA","5871","56593","53588","54590","55592","NA","NA","56593","NA","NA","10138","8108","52578","54089","55091","56093","52548","53578","52467","52548","11138","New experiment","yes","1024"
"<opensesame_plugins.lsl_start.liblsl.LSL_session object at 0x000001FC3E7A3CC0>","0","black","[0.0, 0.0]","legacy","0","uniform","11","0","0","0","0","11","11","11","11","0","NA","11","NA","0","0","0","11","11","11","11","11","NA","11","11","0","Wed Nov 17 18:00:17 2021","-8","The main experiment item","yes","experiment.osexp","C:/Users/elus/Demant/+Team OMEXP - Article/ISAAR 2021/Data/experiments","no","mono","no","18","no","white","no","Next","400","no","768","11","0","11","C:/Users/elus/Documents/RecordingLSL_maybefinal/subject-4.csv","5","[<opensesame_plugins.lsl_start.liblsl.LSL_session object at 0x000001FC3E7A3CC0>]","Kafkaesque Koffka","3.2.7","3","0","2","1024","2","48000","-16","experiment","0","4","even","NA","10108","10136","NA","5871","60723","57718","58720","59722","NA","NA","60723","NA","NA","10138","8108","56708","58219","59221","60223","56678","57708","56595","56678","11138","New experiment","yes","1024"
"<opensesame_plugins.lsl_start.liblsl.LSL_session object at 0x000001FC3E7A3CC0>","1","black","[0.0, 0.0]","legacy","0","uniform","12","0","0","0","0","12","12","12","12","0","NA","12","NA","0","0","0","12","12","12","12","12","NA","12","12","0","Wed Nov 17 18:00:17 2021","-7.5","The main experiment item","yes","experiment.osexp","C:/Users/elus/Demant/+Team OMEXP - Article/ISAAR 2021/Data/experiments","no","mono","no","18","no","white","no","Next","400","no","768","12","0","12","C:/Users/elus/Documents/RecordingLSL_maybefinal/subject-4.csv","5","[<opensesame_plugins.lsl_start.liblsl.LSL_session object at 0x000001FC3E7A3CC0>]","Kafkaesque Koffka","3.2.7","1","0","2","1024","2","48000","-16","experiment","0","4","even","NA","10108","10136","NA","5871","64852","61847","62849","63851","NA","NA","64852","NA","NA","10138","8108","60839","62348","63350","64352","60808","61839","60725","60808","11138","New experiment","yes","1024"
"<opensesame_plugins.lsl_start.liblsl.LSL_session object at 0x000001FC3E7A3CC0>","1","black","[0.0, 0.0]","legacy","0","uniform","13","0","0","0","0","13","13","13","13","0","NA","13","NA","0","0","0","13","13","13","13","13","NA","13","13","0","Wed Nov 17 18:00:17 2021","-7.5","The main experiment item","yes","experiment.osexp","C:/Users/elus/Demant/+Team OMEXP - Article/ISAAR 2021/Data/experiments","no","mono","no","18","no","white","no","Next","400","no","768","13","0","13","C:/Users/elus/Documents/RecordingLSL_maybefinal/subject-4.csv","5","[<opensesame_plugins.lsl_start.liblsl.LSL_session object at 0x000001FC3E7A3CC0>]","Kafkaesque Koffka","3.2.7","2","0","2","1024","2","48000","-16","experiment","0","4","even","NA","10108","10136","NA","5871","68982","65977","66979","67981","NA","NA","68982","NA","NA","10138","8108","64964","66478","67480","68482","64934","65964","64855","64934","11138","New experiment","yes","1024"
"<opensesame_plugins.lsl_start.liblsl.LSL_session object at 0x000001FC3E7A3CC0>","1","black","[0.0, 0.0]","legacy","0","uniform","14","0","0","0","0","14","14","14","14","0","NA","14","NA","0","0","0","14","14","14","14","14","NA","14","14","0","Wed Nov 17 18:00:17 2021","-7.5","The main experiment item","yes","experiment.osexp","C:/Users/elus/Demant/+Team OMEXP - Article/ISAAR 2021/Data/experiments","no","mono","no","18","no","white","no","Next","400","no","768","14","0","14","C:/Users/elus/Documents/RecordingLSL_maybefinal/subject-4.csv","5","[<opensesame_plugins.lsl_start.liblsl.LSL_session object at 0x000001FC3E7A3CC0>]","Kafkaesque Koffka","3.2.7","3","0","2","1024","2","48000","-16","experiment","0","4","even","NA","10108","10136","NA","5871","73113","70107","71110","72112","NA","NA","73113","NA","NA","10138","8108","69092","70609","71611","72613","69063","70092","68984","69063","11138","New experiment","yes","1024"
"<opensesame_plugins.lsl_start.liblsl.LSL_session object at 0x000001FC3E7A3CC0>","1","black","[0.0, 0.0]","legacy","0","uniform","15","0","0","0","0","15","15","15","15","0","NA","15","NA","0","0","0","15","15","15","15","15","NA","15","15","0","Wed Nov 17 18:00:17 2021","-8","The main experiment item","yes","experiment.osexp","C:/Users/elus/Demant/+Team OMEXP - Article/ISAAR 2021/Data/experiments","no","mono","no","18","no","white","no","Next","400","no","768","15","0","15","C:/Users/elus/Documents/RecordingLSL_maybefinal/subject-4.csv","5","[<opensesame_plugins.lsl_start.liblsl.LSL_session object at 0x000001FC3E7A3CC0>]","Kafkaesque Koffka","3.2.7","1","0","2","1024","2","48000","-16","experiment","0","4","even","NA","10108","10136","NA","5871","77243","74237","75240","76242","NA","NA","77243","NA","NA","10138","8108","73221","74739","75741","76743","73193","74221","73115","73193","11138","New experiment","yes","1024"
"<opensesame_plugins.lsl_start.liblsl.LSL_session object at 0x000001FC3E7A3CC0>","1","black","[0.0, 0.0]","legacy","0","uniform","16","0","0","0","0","16","16","16","16","0","NA","16","NA","0","0","0","16","16","16","16","16","NA","16","16","0","Wed Nov 17 18:00:17 2021","-8","The main experiment item","yes","experiment.osexp","C:/Users/elus/Demant/+Team OMEXP - Article/ISAAR 2021/Data/experiments","no","mono","no","18","no","white","no","Next","400","no","768","16","0","16","C:/Users/elus/Documents/RecordingLSL_maybefinal/subject-4.csv","5","[<opensesame_plugins.lsl_start.liblsl.LSL_session object at 0x000001FC3E7A3CC0>]","Kafkaesque Koffka","3.2.7","2","0","2","1024","2","48000","-16","experiment","0","4","even","NA","10108","10136","NA","5871","81386","78380","79382","80384","NA","NA","81386","NA","NA","10138","8108","77363","78881","79883","80885","77332","78363","77245","77332","11138","New experiment","yes","1024"
"<opensesame_plugins.lsl_start.liblsl.LSL_session object at 0x000001FC3E7A3CC0>","1","black","[0.0, 0.0]","legacy","0","uniform","17","0","0","0","0","17","17","17","17","0","NA","17","NA","0","0","0","17","17","17","17","17","NA","17","17","0","Wed Nov 17 18:00:17 2021","-8","The main experiment item","yes","experiment.osexp","C:/Users/elus/Demant/+Team OMEXP - Article/ISAAR 2021/Data/experiments","no","mono","no","18","no","white","no","Next","400","no","768","17","0","17","C:/Users/elus/Documents/RecordingLSL_maybefinal/subject-4.csv","5","[<opensesame_plugins.lsl_start.liblsl.LSL_session object at 0x000001FC3E7A3CC0>]","Kafkaesque Koffka","3.2.7","3","0","2","1024","2","48000","-16","experiment","0","4","even","NA","10108","10136","NA","5871","85523","82519","83521","84522","NA","NA","85523","NA","NA","10138","8108","81501","83020","84021","85023","81470","82501","81388","81470","11138","New experiment","yes","1024"
"<opensesame_plugins.lsl_start.liblsl.LSL_session object at 0x000001FC3E7A3CC0>","0","black","[0.0, 0.0]","legacy","0","uniform","18","0","0","0","0","18","18","18","18","0","NA","18","NA","0","0","0","18","18","18","18","18","NA","18","18","0","Wed Nov 17 18:00:17 2021","-8.5","The main experiment item","yes","experiment.osexp","C:/Users/elus/Demant/+Team OMEXP - Article/ISAAR 2021/Data/experiments","no","mono","no","18","no","white","no","Next","400","no","768","18","0","18","C:/Users/elus/Documents/RecordingLSL_maybefinal/subject-4.csv","5","[<opensesame_plugins.lsl_start.liblsl.LSL_session object at 0x000001FC3E7A3CC0>]","Kafkaesque Koffka","3.2.7","1","0","2","1024","2","48000","-16","experiment","0","4","even","NA","10108","10136","NA","5871","89675","86669","87672","88674","NA","NA","89675","NA","NA","10138","8108","85650","87170","88173","89175","85621","86650","85531","85621","11138","New experiment","yes","1024"
"<opensesame_plugins.lsl_start.liblsl.LSL_session object at 0x000001FC3E7A3CC0>","1","black","[0.0, 0.0]","legacy","0","uniform","19","0","0","0","0","19","19","19","19","0","NA","19","NA","0","0","0","19","19","19","19","19","NA","19","19","0","Wed Nov 17 18:00:17 2021","-8","The main experiment item","yes","experiment.osexp","C:/Users/elus/Demant/+Team OMEXP - Article/ISAAR 2021/Data/experiments","no","mono","no","18","no","white","no","Next","400","no","768","19","0","19","C:/Users/elus/Documents/RecordingLSL_maybefinal/subject-4.csv","5","[<opensesame_plugins.lsl_start.liblsl.LSL_session object at 0x000001FC3E7A3CC0>]","Kafkaesque Koffka","3.2.7","2","0","2","1024","2","48000","-16","experiment","0","4","even","NA","10108","10136","NA","5871","93835","90826","91832","92834","NA","NA","93835","NA","NA","10138","8108","89809","91327","92333","93335","89757","90810","89677","89757","11138","New experiment","yes","1024"
"<opensesame_plugins.lsl_start.liblsl.LSL_session object at 0x000001FC3E7A3CC0>","1","black","[0.0, 0.0]","legacy","0","uniform","20","0","0","0","0","20","20","20","20","0","NA","20","NA","0","0","0","20","20","20","20","20","NA","20","20","0","Wed Nov 17 18:00:17 2021","-8","The main experiment item","yes","experiment.osexp","C:/Users/elus/Demant/+Team OMEXP - Article/ISAAR 2021/Data/experiments","no","mono","no","18","no","white","no","Next","400","no","768","20","0","20","C:/Users/elus/Documents/RecordingLSL_maybefinal/subject-4.csv","5","[<opensesame_plugins.lsl_start.liblsl.LSL_session object at 0x000001FC3E7A3CC0>]","Kafkaesque Koffka","3.2.7","3","0","2","1024","2","48000","-16","experiment","0","4","even","NA","10108","10136","NA","5871","98000","94989","95991","96999","NA","NA","98000","NA","NA","10138","8108","93972","95490","96492","97500","93937","94972","93837","93937","11138","New experiment","yes","1024"
"<opensesame_plugins.lsl_start.liblsl.LSL_session object at 0x000001FC3E7A3CC0>","1","black","[0.0, 0.0]","legacy","0","uniform","21","0","0","0","0","21","21","21","21","0","NA","21","NA","0","0","0","21","21","21","21","21","NA","21","21","0","Wed Nov 17 18:00:17 2021","-8","The main experiment item","yes","experiment.osexp","C:/Users/elus/Demant/+Team OMEXP - Article/ISAAR 2021/Data/experiments","no","mono","no","18","no","white","no","Next","400","no","768","21","0","21","C:/Users/elus/Documents/RecordingLSL_maybefinal/subject-4.csv","5","[<opensesame_plugins.lsl_start.liblsl.LSL_session object at 0x000001FC3E7A3CC0>]","Kafkaesque Koffka","3.2.7","1","0","2","1024","2","48000","-16","experiment","0","4","even","NA","10108","10136","NA","5871","102154","99149","100151","101153","NA","NA","102154","NA","NA","10138","8108","98134","99650","100652","101654","98100","99134","98002","98100","11138","New experiment","yes","1024"
"<opensesame_plugins.lsl_start.liblsl.LSL_session object at 0x000001FC3E7A3CC0>","1","black","[0.0, 0.0]","legacy","0","uniform","22","0","0","0","0","22","22","22","22","0","NA","22","NA","0","0","0","22","22","22","22","22","NA","22","22","0","Wed Nov 17 18:00:17 2021","-8.5","The main experiment item","yes","experiment.osexp","C:/Users/elus/Demant/+Team OMEXP - Article/ISAAR 2021/Data/experiments","no","mono","no","18","no","white","no","Next","400","no","768","22","0","22","C:/Users/elus/Documents/RecordingLSL_maybefinal/subject-4.csv","5","[<opensesame_plugins.lsl_start.liblsl.LSL_session object at 0x000001FC3E7A3CC0>]","Kafkaesque Koffka","3.2.7","2","0","2","1024","2","48000","-16","experiment","0","4","even","NA","10108","10136","NA","5871","106314","103309","104311","105313","NA","NA","106314","NA","NA","10138","8108","102292","103810","104812","105814","102256","103293","102156","102256","11138","New experiment","yes","1024"
"<opensesame_plugins.lsl_start.liblsl.LSL_session object at 0x000001FC3E7A3CC0>","1","black","[0.0, 0.0]","legacy","0","uniform","23","0","0","0","0","23","23","23","23","0","NA","23","NA","0","0","0","23","23","23","23","23","NA","23","23","0","Wed Nov 17 18:00:17 2021","-8.5","The main experiment item","yes","experiment.osexp","C:/Users/elus/Demant/+Team OMEXP - Article/ISAAR 2021/Data/experiments","no","mono","no","18","no","white","no","Next","400","no","768","23","0","23","C:/Users/elus/Documents/RecordingLSL_maybefinal/subject-4.csv","5","[<opensesame_plugins.lsl_start.liblsl.LSL_session object at 0x000001FC3E7A3CC0>]","Kafkaesque Koffka","3.2.7","3","0","2","1024","2","48000","-16","experiment","0","4","even","NA","10108","10136","NA","5871","110464","107459","108461","109463","NA","NA","110464","NA","NA","10138","8108","106449","107960","108962","109964","106412","107449","106316","106412","11138","New experiment","yes","1024"
"<opensesame_plugins.lsl_start.liblsl.LSL_session object at 0x000001FC3E7A3CC0>","1","black","[0.0, 0.0]","legacy","0","uniform","24","0","0","0","0","24","24","24","24","0","NA","24","NA","0","0","0","24","24","24","24","24","NA","24","24","0","Wed Nov 17 18:00:17 2021","-8.5","The main experiment item","yes","experiment.osexp","C:/Users/elus/Demant/+Team OMEXP - Article/ISAAR 2021/Data/experiments","no","mono","no","18","no","white","no","Next","400","no","768","24","0","24","C:/Users/elus/Documents/RecordingLSL_maybefinal/subject-4.csv","5","[<opensesame_plugins.lsl_start.liblsl.LSL_session object at 0x000001FC3E7A3CC0>]","Kafkaesque Koffka","3.2.7","1","0","2","1024","2","48000","-16","experiment","0","4","even","NA","10108","10136","NA","5871","114613","111608","112610","113612","NA","NA","114613","NA","NA","10138","8108","110599","112109","113111","114113","110569","111599","110466","110569","11138","New experiment","yes","1024"
"<opensesame_plugins.lsl_start.liblsl.LSL_session object at 0x000001FC3E7A3CC0>","1","black","[0.0, 0.0]","legacy","0","uniform","25","0","0","0","0","25","25","25","25","0","NA","25","NA","0","0","0","25","25","25","25","25","NA","25","25","0","Wed Nov 17 18:00:17 2021","-9","The main experiment item","yes","experiment.osexp","C:/Users/elus/Demant/+Team OMEXP - Article/ISAAR 2021/Data/experiments","no","mono","no","18","no","white","no","Next","400","no","768","25","0","25","C:/Users/elus/Documents/RecordingLSL_maybefinal/subject-4.csv","5","[<opensesame_plugins.lsl_start.liblsl.LSL_session object at 0x000001FC3E7A3CC0>]","Kafkaesque Koffka","3.2.7","2","0","2","1024","2","48000","-16","experiment","0","4","even","NA","10108","10136","NA","5871","118765","115758","116762","117764","NA","NA","118765","NA","NA","10138","8108","114747","116260","117263","118265","114711","115747","114615","114711","11138","New experiment","yes","1024"
"<opensesame_plugins.lsl_start.liblsl.LSL_session object at 0x000001FC3E7A3CC0>","1","black","[0.0, 0.0]","legacy","0","uniform","26","0","0","0","0","26","26","26","26","0","NA","26","NA","0","0","0","26","26","26","26","26","NA","26","26","0","Wed Nov 17 18:00:17 2021","-9","The main experiment item","yes","experiment.osexp","C:/Users/elus/Demant/+Team OMEXP - Article/ISAAR 2021/Data/experiments","no","mono","no","18","no","white","no","Next","400","no","768","26","0","26","C:/Users/elus/Documents/RecordingLSL_maybefinal/subject-4.csv","5","[<opensesame_plugins.lsl_start.liblsl.LSL_session object at 0x000001FC3E7A3CC0>]","Kafkaesque Koffka","3.2.7","3","0","2","1024","2","48000","-16","experiment","0","4","even","NA","10108","10136","NA","5871","122935","119918","120926","121934","NA","NA","122935","NA","NA","10138","8108","118901","120419","121427","122435","118864","119901","118767","118864","11138","New experiment","yes","1024"
"<opensesame_plugins.lsl_start.liblsl.LSL_session object at 0x000001FC3E7A3CC0>","0","black","[0.0, 0.0]","legacy","0","uniform","27","0","0","0","0","27","27","27","27","0","NA","27","NA","0","0","0","27","27","27","27","27","NA","27","27","0","Wed Nov 17 18:00:17 2021","-9","The main experiment item","yes","experiment.osexp","C:/Users/elus/Demant/+Team OMEXP - Article/ISAAR 2021/Data/experiments","no","mono","no","18","no","white","no","Next","400","no","768","27","0","27","C:/Users/elus/Documents/RecordingLSL_maybefinal/subject-4.csv","5","[<opensesame_plugins.lsl_start.liblsl.LSL_session object at 0x000001FC3E7A3CC0>]","Kafkaesque Koffka","3.2.7","1","0","2","1024","2","48000","-16","experiment","0","4","even","NA","10108","10136","NA","5871","127082","124077","125079","126081","NA","NA","127082","NA","NA","10138","8108","123067","124578","125580","126582","123034","124068","122936","123033","11138","New experiment","yes","1024"
"<opensesame_plugins.lsl_start.liblsl.LSL_session object at 0x000001FC3E7A3CC0>","1","black","[0.0, 0.0]","legacy","0","uniform","28","0","0","0","0","28","28","28","28","0","NA","28","NA","0","0","0","28","28","28","28","28","NA","28","28","0","Wed Nov 17 18:00:17 2021","-8.5","The main experiment item","yes","experiment.osexp","C:/Users/elus/Demant/+Team OMEXP - Article/ISAAR 2021/Data/experiments","no","mono","no","18","no","white","no","Next","400","no","768","28","0","28","C:/Users/elus/Documents/RecordingLSL_maybefinal/subject-4.csv","5","[<opensesame_plugins.lsl_start.liblsl.LSL_session object at 0x000001FC3E7A3CC0>]","Kafkaesque Koffka","3.2.7","2","0","2","1024","2","48000","-16","experiment","0","4","even","NA","10108","10136","NA","5871","131237","128228","129230","130236","NA","NA","131237","NA","NA","10138","8108","127217","128729","129731","130737","127192","128217","127084","127192","11138","New experiment","yes","1024"
"<opensesame_plugins.lsl_start.liblsl.LSL_session object at 0x000001FC3E7A3CC0>","1","black","[0.0, 0.0]","legacy","0","uniform","29","0","0","0","0","29","29","29","29","0","NA","29","NA","0","0","0","29","29","29","29","29","NA","29","29","0","Wed Nov 17 18:00:17 2021","-8.5","The main experiment item","yes","experiment.osexp","C:/Users/elus/Demant/+Team OMEXP - Article/ISAAR 2021/Data/experiments","no","mono","no","18","no","white","no","Next","400","no","768","29","0","29","C:/Users/elus/Documents/RecordingLSL_maybefinal/subject-4.csv","5","[<opensesame_plugins.lsl_start.liblsl.LSL_session object at 0x000001FC3E7A3CC0>]","Kafkaesque Koffka","3.2.7","3","0","2","1024","2","48000","-16","experiment","0","4","even","NA","10108","10136","NA","5871","135403","132398","133400","134402","NA","NA","135403","NA","NA","10138","8108","131379","132899","133901","134903","131344","132379","131239","131344","11138","New experiment","yes","1024"
"<opensesame_plugins.lsl_start.liblsl.LSL_session object at 0x000001FC3E7A3CC0>","0","black","[0.0, 0.0]","legacy","0","uniform","30","0","0","0","0","30","30","30","30","0","NA","30","NA","0","0","0","30","30","30","30","30","NA","30","30","0","Wed Nov 17 18:00:17 2021","-8.5","The main experiment item","yes","experiment.osexp","C:/Users/elus/Demant/+Team OMEXP - Article/ISAAR 2021/Data/experiments","no","mono","no","18","no","white","no","Next","400","no","768","30","0","30","C:/Users/elus/Documents/RecordingLSL_maybefinal/subject-4.csv","5","[<opensesame_plugins.lsl_start.liblsl.LSL_session object at 0x000001FC3E7A3CC0>]","Kafkaesque Koffka","3.2.7","1","0","2","1024","2","48000","-16","experiment","0","4","even","NA","10108","10136","NA","5871","139562","136557","137559","138561","NA","NA","139562","NA","NA","10138","8108","135546","137058","138060","139062","135511","136546","135405","135511","11138","New experiment","yes","1024"
"<opensesame_plugins.lsl_start.liblsl.LSL_session object at 0x000001FC3E7A3CC0>","0","black","[0.0, 0.0]","legacy","0","uniform","31","0","0","0","0","31","31","31","31","0","NA","31","NA","0","0","0","31","31","31","31","31","NA","31","31","0","Wed Nov 17 18:00:17 2021","-8","The main experiment item","yes","experiment.osexp","C:/Users/elus/Demant/+Team OMEXP - Article/ISAAR 2021/Data/experiments","no","mono","no","18","no","white","no","Next","400","no","768","31","0","31","C:/Users/elus/Documents/RecordingLSL_maybefinal/subject-4.csv","5","[<opensesame_plugins.lsl_start.liblsl.LSL_session object at 0x000001FC3E7A3CC0>]","Kafkaesque Koffka","3.2.7","2","0","2","1024","2","48000","-16","experiment","0","4","even","NA","10108","10136","NA","5871","143733","140718","141720","142732","NA","NA","143733","NA","NA","10138","8108","139703","141219","142221","143233","139667","140703","139564","139667","11138","New experiment","yes","1024"
"<opensesame_plugins.lsl_start.liblsl.LSL_session object at 0x000001FC3E7A3CC0>","0","black","[0.0, 0.0]","legacy","0","uniform","32","0","0","0","0","32","32","32","32","0","NA","32","NA","0","0","0","32","32","32","32","32","NA","32","32","0","Wed Nov 17 18:00:17 2021","-7.5","The main experiment item","yes","experiment.osexp","C:/Users/elus/Demant/+Team OMEXP - Article/ISAAR 2021/Data/experiments","no","mono","no","18","no","white","no","Next","400","no","768","32","0","32","C:/Users/elus/Documents/RecordingLSL_maybefinal/subject-4.csv","5","[<opensesame_plugins.lsl_start.liblsl.LSL_session object at 0x000001FC3E7A3CC0>]","Kafkaesque Koffka","3.2.7","3","0","2","1024","2","48000","-16","experiment","0","4","even","NA","10108","10136","NA","5871","147883","144878","145880","146882","NA","NA","147883","NA","NA","10138","8108","143868","145379","146381","147383","143839","144868","143735","143839","11138","New experiment","yes","1024"
"<opensesame_plugins.lsl_start.liblsl.LSL_session object at 0x000001FC3E7A3CC0>","1","black","[0.0, 0.0]","legacy","0","uniform","33","0","0","0","0","33","33","33","33","0","NA","33","NA","0","0","0","33","33","33","33","33","NA","33","33","0","Wed Nov 17 18:00:17 2021","-7","The main experiment item","yes","experiment.osexp","C:/Users/elus/Demant/+Team OMEXP - Article/ISAAR 2021/Data/experiments","no","mono","no","18","no","white","no","Next","400","no","768","33","0","33","C:/Users/elus/Documents/RecordingLSL_maybefinal/subject-4.csv","5","[<opensesame_plugins.lsl_start.liblsl.LSL_session object at 0x000001FC3E7A3CC0>]","Kafkaesque Koffka","3.2.7","1","0","2","1024","2","48000","-16","experiment","0","4","even","NA","10108","10136","NA","5871","152034","149029","150031","151033","NA","NA","152034","NA","NA","10138","8108","148018","149530","150532","151534","147981","149018","147885","147981","11138","New experiment","yes","1024"
"<opensesame_plugins.lsl_start.liblsl.LSL_session object at 0x000001FC3E7A3CC0>","1","black","[0.0, 0.0]","legacy","0","uniform","34","0","0","0","0","34","34","34","34","0","NA","34","NA","0","0","0","34","34","34","34","34","NA","34","34","0","Wed Nov 17 18:00:17 2021","-7","The main experiment item","yes","experiment.osexp","C:/Users/elus/Demant/+Team OMEXP - Article/ISAAR 2021/Data/experiments","no","mono","no","18","no","white","no","Next","400","no","768","34","0","34","C:/Users/elus/Documents/RecordingLSL_maybefinal/subject-4.csv","5","[<opensesame_plugins.lsl_start.liblsl.LSL_session object at 0x000001FC3E7A3CC0>]","Kafkaesque Koffka","3.2.7","2","0","2","1024","2","48000","-16","experiment","0","4","even","NA","10108","10136","NA","5871","156201","153188","154195","155200","NA","NA","156201","NA","NA","10138","8108","152169","153689","154696","155701","152133","153169","152036","152133","11138","New experiment","yes","1024"
"<opensesame_plugins.lsl_start.liblsl.LSL_session object at 0x000001FC3E7A3CC0>","1","black","[0.0, 0.0]","legacy","0","uniform","35","0","0","0","0","35","35","35","35","0","NA","35","NA","0","0","0","35","35","35","35","35","NA","35","35","0","Wed Nov 17 18:00:17 2021","-7","The main experiment item","yes","experiment.osexp","C:/Users/elus/Demant/+Team OMEXP - Article/ISAAR 2021/Data/experiments","no","mono","no","18","no","white","no","Next","400","no","768","35","0","35","C:/Users/elus/Documents/RecordingLSL_maybefinal/subject-4.csv","5","[<opensesame_plugins.lsl_start.liblsl.LSL_session object at 0x000001FC3E7A3CC0>]","Kafkaesque Koffka","3.2.7","3","0","2","1024","2","48000","-16","experiment","0","4","even","NA","10108","10136","NA","5871","160365","157360","158362","159364","NA","NA","160365","NA","NA","10138","8108","156340","157861","158863","159865","156306","157340","156207","156306","11138","New experiment","yes","1024"
"<opensesame_plugins.lsl_start.liblsl.LSL_session object at 0x000001FC3E7A3CC0>","1","black","[0.0, 0.0]","legacy","0","uniform","36","0","1","0","0","36","36","36","36","1","NA","36","NA","0","1","0","36","36","36","36","36","NA","36","36","1","Wed Nov 17 18:00:17 2021","-6","The main experiment item","yes","experiment.osexp","C:/Users/elus/Demant/+Team OMEXP - Article/ISAAR 2021/Data/experiments","no","mono","no","18","no","white","no","Next","1000","no","768","0","1","0","C:/Users/elus/Documents/RecordingLSL_maybefinal/subject-4.csv","5","[<opensesame_plugins.lsl_start.liblsl.LSL_session object at 0x000001FC3E7A3CC0>]","Kafkaesque Koffka","3.2.7","1","0","2","1024","2","48000","-16","experiment","0","4","even","NA","10108","160489","NA","5871","165583","162578","163580","164582","NA","NA","165583","NA","NA","160491","8108","161569","163079","164081","165083","161547","162569","160373","161547","161491","New experiment","yes","1024"
"<opensesame_plugins.lsl_start.liblsl.LSL_session object at 0x000001FC3E7A3CC0>","1","black","[0.0, 0.0]","legacy","0","uniform","37","0","1","0","0","37","37","37","37","1","NA","37","NA","0","1","0","37","37","37","37","37","NA","37","37","1","Wed Nov 17 18:00:17 2021","-6","The main experiment item","yes","experiment.osexp","C:/Users/elus/Demant/+Team OMEXP - Article/ISAAR 2021/Data/experiments","no","mono","no","18","no","white","no","Next","1000","no","768","1","1","1","C:/Users/elus/Documents/RecordingLSL_maybefinal/subject-4.csv","5","[<opensesame_plugins.lsl_start.liblsl.LSL_session object at 0x000001FC3E7A3CC0>]","Kafkaesque Koffka","3.2.7","2","0","2","1024","2","48000","-16","experiment","0","4","even","NA","10108","160489","NA","5871","169745","166738","167742","168744","NA","NA","169745","NA","NA","160491","8108","165729","167239","168243","169245","165696","166729","165591","165696","161491","New experiment","yes","1024"
"<opensesame_plugins.lsl_start.liblsl.LSL_session object at 0x000001FC3E7A3CC0>","0","black","[0.0, 0.0]","legacy","0","uniform","38","0","1","0","0","38","38","38","38","1","NA","38","NA","0","1","0","38","38","38","38","38","NA","38","38","1","Wed Nov 17 18:00:17 2021","-6","The main experiment item","yes","experiment.osexp","C:/Users/elus/Demant/+Team OMEXP - Article/ISAAR 2021/Data/experiments","no","mono","no","18","no","white","no","Next","1000","no","768","2","1","2","C:/Users/elus/Documents/RecordingLSL_maybefinal/subject-4.csv","5","[<opensesame_plugins.lsl_start.liblsl.LSL_session object at 0x000001FC3E7A3CC0>]","Kafkaesque Koffka","3.2.7","3","0","2","1024","2","48000","-16","experiment","0","4","even","NA","10108","160489","NA","5871","173894","170889","171891","172893","NA","NA","173894","NA","NA","160491","8108","169879","171390","172392","173394","169843","170879","169747","169843","161491","New experiment","yes","1024"
"<opensesame_plugins.lsl_start.liblsl.LSL_session object at 0x000001FC3E7A3CC0>","1","black","[0.0, 0.0]","legacy","0","uniform","39","0","1","0","0","39","39","39","39","1","NA","39","NA","0","1","0","39","39","39","39","39","NA","39","39","1","Wed Nov 17 18:00:17 2021","-5","The main experiment item","yes","experiment.osexp","C:/Users/elus/Demant/+Team OMEXP - Article/ISAAR 2021/Data/experiments","no","mono","no","18","no","white","no","Next","1000","no","768","3","1","3","C:/Users/elus/Documents/RecordingLSL_maybefinal/subject-4.csv","5","[<opensesame_plugins.lsl_start.liblsl.LSL_session object at 0x000001FC3E7A3CC0>]","Kafkaesque Koffka","3.2.7","1","0","2","1024","2","48000","-16","experiment","0","4","even","NA","10108","160489","NA","5871","178057","175048","176050","177056","NA","NA","178057","NA","NA","160491","8108","174039","175549","176551","177557","174018","175039","173896","174018","161491","New experiment","yes","1024"
"<opensesame_plugins.lsl_start.liblsl.LSL_session object at 0x000001FC3E7A3CC0>","1","black","[0.0, 0.0]","legacy","0","uniform","40","0","1","0","0","40","40","40","40","1","NA","40","NA","0","1","0","40","40","40","40","40","NA","40","40","1","Wed Nov 17 18:00:17 2021","-5","The main experiment item","yes","experiment.osexp","C:/Users/elus/Demant/+Team OMEXP - Article/ISAAR 2021/Data/experiments","no","mono","no","18","no","white","no","Next","1000","no","768","4","1","4","C:/Users/elus/Documents/RecordingLSL_maybefinal/subject-4.csv","5","[<opensesame_plugins.lsl_start.liblsl.LSL_session object at 0x000001FC3E7A3CC0>]","Kafkaesque Koffka","3.2.7","2","0","2","1024","2","48000","-16","experiment","0","4","even","NA","10108","160489","NA","5871","182204","179199","180201","181203","NA","NA","182204","NA","NA","160491","8108","178184","179700","180702","181704","178142","179186","178060","178142","161491","New experiment","yes","1024"
"<opensesame_plugins.lsl_start.liblsl.LSL_session object at 0x000001FC3E7A3CC0>","1","black","[0.0, 0.0]","legacy","0","uniform","41","0","1","0","0","41","41","41","41","1","NA","41","NA","0","1","0","41","41","41","41","41","NA","41","41","1","Wed Nov 17 18:00:17 2021","-5","The main experiment item","yes","experiment.osexp","C:/Users/elus/Demant/+Team OMEXP - Article/ISAAR 2021/Data/experiments","no","mono","no","18","no","white","no","Next","1000","no","768","5","1","5","C:/Users/elus/Documents/RecordingLSL_maybefinal/subject-4.csv","5","[<opensesame_plugins.lsl_start.liblsl.LSL_session object at 0x000001FC3E7A3CC0>]","Kafkaesque Koffka","3.2.7","3","0","2","1024","2","48000","-16","experiment","0","4","even","NA","10108","160489","NA","5871","186366","183358","184363","185365","NA","NA","186366","NA","NA","160491","8108","182340","183859","184864","185866","182306","183340","182206","182306","161491","New experiment","yes","1024"
"<opensesame_plugins.lsl_start.liblsl.LSL_session object at 0x000001FC3E7A3CC0>","1","black","[0.0, 0.0]","legacy","0","uniform","42","0","1","0","0","42","42","42","42","1","NA","42","NA","0","1","0","42","42","42","42","42","NA","42","42","1","Wed Nov 17 18:00:17 2021","-5.5","The main experiment item","yes","experiment.osexp","C:/Users/elus/Demant/+Team OMEXP - Article/ISAAR 2021/Data/experiments","no","mono","no","18","no","white","no","Next","1000","no","768","6","1","6","C:/Users/elus/Documents/RecordingLSL_maybefinal/subject-4.csv","5","[<opensesame_plugins.lsl_start.liblsl.LSL_session object at 0x000001FC3E7A3CC0>]","Kafkaesque Koffka","3.2.7","1","0","2","1024","2","48000","-16","experiment","0","4","even","NA","10108","160489","NA","5871","190544","187528","188541","189543","NA","NA","190544","NA","NA","160491","8108","186511","188029","189042","190044","186476","187511","186368","186476","161491","New experiment","yes","1024"
"<opensesame_plugins.lsl_start.liblsl.LSL_session object at 0x000001FC3E7A3CC0>","1","black","[0.0, 0.0]","legacy","0","uniform","43","0","1","0","0","43","43","43","43","1","NA","43","NA","0","1","0","43","43","43","43","43","NA","43","43","1","Wed Nov 17 18:00:17 2021","-5.5","The main experiment item","yes","experiment.osexp","C:/Users/elus/Demant/+Team OMEXP - Article/ISAAR 2021/Data/experiments","no","mono","no","18","no","white","no","Next","1000","no","768","7","1","7","C:/Users/elus/Documents/RecordingLSL_maybefinal/subject-4.csv","5","[<opensesame_plugins.lsl_start.liblsl.LSL_session object at 0x000001FC3E7A3CC0>]","Kafkaesque Koffka","3.2.7","2","0","2","1024","2","48000","-16","experiment","0","4","even","NA","10108","160489","NA","5871","194701","191688","192698","193699","NA","NA","194701","NA","NA","160491","8108","190675","192189","193199","194201","190654","191675","190546","190654","161491","New experiment","yes","1024"
"<opensesame_plugins.lsl_start.liblsl.LSL_session object at 0x000001FC3E7A3CC0>","1","black","[0.0, 0.0]","legacy","0","uniform","44","0","1","0","0","44","44","44","44","1","NA","44","NA","0","1","0","44","44","44","44","44","NA","44","44","1","Wed Nov 17 18:00:17 2021","-5.5","The main experiment item","yes","experiment.osexp","C:/Users/elus/Demant/+Team OMEXP - Article/ISAAR 2021/Data/experiments","no","mono","no","18","no","white","no","Next","1000","no","768","8","1","8","C:/Users/elus/Documents/RecordingLSL_maybefinal/subject-4.csv","5","[<opensesame_plugins.lsl_start.liblsl.LSL_session object at 0x000001FC3E7A3CC0>]","Kafkaesque Koffka","3.2.7","3","0","2","1024","2","48000","-16","experiment","0","4","even","NA","10108","160489","NA","5871","198854","195849","196851","197853","NA","NA","198854","NA","NA","160491","8108","194833","196350","197352","198354","194799","195833","194703","194799","161491","New experiment","yes","1024"
"<opensesame_plugins.lsl_start.liblsl.LSL_session object at 0x000001FC3E7A3CC0>","1","black","[0.0, 0.0]","legacy","0","uniform","45","0","1","0","0","45","45","45","45","1","NA","45","NA","0","1","0","45","45","45","45","45","NA","45","45","1","Wed Nov 17 18:00:17 2021","-6","The main experiment item","yes","experiment.osexp","C:/Users/elus/Demant/+Team OMEXP - Article/ISAAR 2021/Data/experiments","no","mono","no","18","no","white","no","Next","1000","no","768","9","1","9","C:/Users/elus/Documents/RecordingLSL_maybefinal/subject-4.csv","5","[<opensesame_plugins.lsl_start.liblsl.LSL_session object at 0x000001FC3E7A3CC0>]","Kafkaesque Koffka","3.2.7","1","0","2","1024","2","48000","-16","experiment","0","4","even","NA","10108","160489","NA","5871","203004","199999","201001","202003","NA","NA","203004","NA","NA","160491","8108","198990","200500","201502","202504","198954","199990","198856","198954","161491","New experiment","yes","1024"
"<opensesame_plugins.lsl_start.liblsl.LSL_session object at 0x000001FC3E7A3CC0>","1","black","[0.0, 0.0]","legacy","0","uniform","46","0","1","0","0","46","46","46","46","1","NA","46","NA","0","1","0","46","46","46","46","46","NA","46","46","1","Wed Nov 17 18:00:17 2021","-6","The main experiment item","yes","experiment.osexp","C:/Users/elus/Demant/+Team OMEXP - Article/ISAAR 2021/Data/experiments","no","mono","no","18","no","white","no","Next","1000","no","768","10","1","10","C:/Users/elus/Documents/RecordingLSL_maybefinal/subject-4.csv","5","[<opensesame_plugins.lsl_start.liblsl.LSL_session object at 0x000001FC3E7A3CC0>]","Kafkaesque Koffka","3.2.7","2","0","2","1024","2","48000","-16","experiment","0","4","even","NA","10108","160489","NA","5871","207173","204158","205166","206172","NA","NA","207173","NA","NA","160491","8108","203140","204659","205667","206673","203103","204140","203006","203103","161491","New experiment","yes","1024"
"<opensesame_plugins.lsl_start.liblsl.LSL_session object at 0x000001FC3E7A3CC0>","1","black","[0.0, 0.0]","legacy","0","uniform","47","0","1","0","0","47","47","47","47","1","NA","47","NA","0","1","0","47","47","47","47","47","NA","47","47","1","Wed Nov 17 18:00:17 2021","-6","The main experiment item","yes","experiment.osexp","C:/Users/elus/Demant/+Team OMEXP - Article/ISAAR 2021/Data/experiments","no","mono","no","18","no","white","no","Next","1000","no","768","11","1","11","C:/Users/elus/Documents/RecordingLSL_maybefinal/subject-4.csv","5","[<opensesame_plugins.lsl_start.liblsl.LSL_session object at 0x000001FC3E7A3CC0>]","Kafkaesque Koffka","3.2.7","3","0","2","1024","2","48000","-16","experiment","0","4","even","NA","10108","160489","NA","5871","211326","208318","209323","210325","NA","NA","211326","NA","NA","160491","8108","207306","208819","209824","210826","207275","208308","207177","207275","161491","New experiment","yes","1024"
"<opensesame_plugins.lsl_start.liblsl.LSL_session object at 0x000001FC3E7A3CC0>","1","black","[0.0, 0.0]","legacy","0","uniform","48","0","1","0","0","48","48","48","48","1","NA","48","NA","0","1","0","48","48","48","48","48","NA","48","48","1","Wed Nov 17 18:00:17 2021","-6.5","The main experiment item","yes","experiment.osexp","C:/Users/elus/Demant/+Team OMEXP - Article/ISAAR 2021/Data/experiments","no","mono","no","18","no","white","no","Next","1000","no","768","12","1","12","C:/Users/elus/Documents/RecordingLSL_maybefinal/subject-4.csv","5","[<opensesame_plugins.lsl_start.liblsl.LSL_session object at 0x000001FC3E7A3CC0>]","Kafkaesque Koffka","3.2.7","1","0","2","1024","2","48000","-16","experiment","0","4","even","NA","10108","160489","NA","5871","215482","212477","213479","214481","NA","NA","215482","NA","NA","160491","8108","211465","212978","213980","214982","211429","212466","211328","211429","161491","New experiment","yes","1024"
"<opensesame_plugins.lsl_start.liblsl.LSL_session object at 0x000001FC3E7A3CC0>","1","black","[0.0, 0.0]","legacy","0","uniform","49","0","1","0","0","49","49","49","49","1","NA","49","NA","0","1","0","49","49","49","49","49","NA","49","49","1","Wed Nov 17 18:00:17 2021","-6.5","The main experiment item","yes","experiment.osexp","C:/Users/elus/Demant/+Team OMEXP - Article/ISAAR 2021/Data/experiments","no","mono","no","18","no","white","no","Next","1000","no","768","13","1","13","C:/Users/elus/Documents/RecordingLSL_maybefinal/subject-4.csv","5","[<opensesame_plugins.lsl_start.liblsl.LSL_session object at 0x000001FC3E7A3CC0>]","Kafkaesque Koffka","3.2.7","2","0","2","1024","2","48000","-16","experiment","0","4","even","NA","10108","160489","NA","5871","219732","216728","217730","218731","NA","NA","219732","NA","NA","160491","8108","215717","217229","218231","219232","215580","216718","215484","215580","161491","New experiment","yes","1024"
"<opensesame_plugins.lsl_start.liblsl.LSL_session object at 0x000001FC3E7A3CC0>","1","black","[0.0, 0.0]","legacy","0","uniform","50","0","1","0","0","50","50","50","50","1","NA","50","NA","0","1","0","50","50","50","50","50","NA","50","50","1","Wed Nov 17 18:00:17 2021","-6.5","The main experiment item","yes","experiment.osexp","C:/Users/elus/Demant/+Team OMEXP - Article/ISAAR 2021/Data/experiments","no","mono","no","18","no","white","no","Next","1000","no","768","14","1","14","C:/Users/elus/Documents/RecordingLSL_maybefinal/subject-4.csv","5","[<opensesame_plugins.lsl_start.liblsl.LSL_session object at 0x000001FC3E7A3CC0>]","Kafkaesque Koffka","3.2.7","3","0","2","1024","2","48000","-16","experiment","0","4","even","NA","10108","160489","NA","5871","223856","220850","221853","222855","NA","NA","223856","NA","NA","160491","8108","219841","221352","222354","223356","219813","220841","219734","219813","161491","New experiment","yes","1024"
"<opensesame_plugins.lsl_start.liblsl.LSL_session object at 0x000001FC3E7A3CC0>","1","black","[0.0, 0.0]","legacy","0","uniform","51","0","1","0","0","51","51","51","51","1","NA","51","NA","0","1","0","51","51","51","51","51","NA","51","51","1","Wed Nov 17 18:00:17 2021","-7","The main experiment item","yes","experiment.osexp","C:/Users/elus/Demant/+Team OMEXP - Article/ISAAR 2021/Data/experiments","no","mono","no","18","no","white","no","Next","1000","no","768","15","1","15","C:/Users/elus/Documents/RecordingLSL_maybefinal/subject-4.csv","5","[<opensesame_plugins.lsl_start.liblsl.LSL_session object at 0x000001FC3E7A3CC0>]","Kafkaesque Koffka","3.2.7","1","0","2","1024","2","48000","-16","experiment","0","4","even","NA","10108","160489","NA","5871","227983","224978","225980","226982","NA","NA","227983","NA","NA","160491","8108","223968","225479","226481","227483","223938","224968","223858","223938","161491","New experiment","yes","1024"
"<opensesame_plugins.lsl_start.liblsl.LSL_session object at 0x000001FC3E7A3CC0>","1","black","[0.0, 0.0]","legacy","0","uniform","52","0","1","0","0","52","52","52","52","1","NA","52","NA","0","1","0","52","52","52","52","52","NA","52","52","1","Wed Nov 17 18:00:17 2021","-7","The main experiment item","yes","experiment.osexp","C:/Users/elus/Demant/+Team OMEXP - Article/ISAAR 2021/Data/experiments","no","mono","no","18","no","white","no","Next","1000","no","768","16","1","16","C:/Users/elus/Documents/RecordingLSL_maybefinal/subject-4.csv","5","[<opensesame_plugins.lsl_start.liblsl.LSL_session object at 0x000001FC3E7A3CC0>]","Kafkaesque Koffka","3.2.7","2","0","2","1024","2","48000","-16","experiment","0","4","even","NA","10108","160489","NA","5871","232114","229109","230111","231113","NA","NA","232114","NA","NA","160491","8108","228093","229610","230612","231614","228066","229093","227985","228066","161491","New experiment","yes","1024"
"<opensesame_plugins.lsl_start.liblsl.LSL_session object at 0x000001FC3E7A3CC0>","1","black","[0.0, 0.0]","legacy","0","uniform","53","0","1","0","0","53","53","53","53","1","NA","53","NA","0","1","0","53","53","53","53","53","NA","53","53","1","Wed Nov 17 18:00:17 2021","-7","The main experiment item","yes","experiment.osexp","C:/Users/elus/Demant/+Team OMEXP - Article/ISAAR 2021/Data/experiments","no","mono","no","18","no","white","no","Next","1000","no","768","17","1","17","C:/Users/elus/Documents/RecordingLSL_maybefinal/subject-4.csv","5","[<opensesame_plugins.lsl_start.liblsl.LSL_session object at 0x000001FC3E7A3CC0>]","Kafkaesque Koffka","3.2.7","3","0","2","1024","2","48000","-16","experiment","0","4","even","NA","10108","160489","NA","5871","236243","233237","234238","235242","NA","NA","236243","NA","NA","160491","8108","232227","233738","234741","235743","232199","233227","232116","232199","161491","New experiment","yes","1024"
"<opensesame_plugins.lsl_start.liblsl.LSL_session object at 0x000001FC3E7A3CC0>","1","black","[0.0, 0.0]","legacy","0","uniform","54","0","1","0","0","54","54","54","54","1","NA","54","NA","0","1","0","54","54","54","54","54","NA","54","54","1","Wed Nov 17 18:00:17 2021","-7.5","The main experiment item","yes","experiment.osexp","C:/Users/elus/Demant/+Team OMEXP - Article/ISAAR 2021/Data/experiments","no","mono","no","18","no","white","no","Next","1000","no","768","18","1","18","C:/Users/elus/Documents/RecordingLSL_maybefinal/subject-4.csv","5","[<opensesame_plugins.lsl_start.liblsl.LSL_session object at 0x000001FC3E7A3CC0>]","Kafkaesque Koffka","3.2.7","1","0","2","1024","2","48000","-16","experiment","0","4","even","NA","10108","160489","NA","5871","240373","237368","238370","239372","NA","NA","240373","NA","NA","160491","8108","236354","237869","238871","239873","236326","237354","236247","236326","161491","New experiment","yes","1024"
"<opensesame_plugins.lsl_start.liblsl.LSL_session object at 0x000001FC3E7A3CC0>","0","black","[0.0, 0.0]","legacy","0","uniform","55","0","1","0","0","55","55","55","55","1","NA","55","NA","0","1","0","55","55","55","55","55","NA","55","55","1","Wed Nov 17 18:00:17 2021","-7.5","The main experiment item","yes","experiment.osexp","C:/Users/elus/Demant/+Team OMEXP - Article/ISAAR 2021/Data/experiments","no","mono","no","18","no","white","no","Next","1000","no","768","19","1","19","C:/Users/elus/Documents/RecordingLSL_maybefinal/subject-4.csv","5","[<opensesame_plugins.lsl_start.liblsl.LSL_session object at 0x000001FC3E7A3CC0>]","Kafkaesque Koffka","3.2.7","2","0","2","1024","2","48000","-16","experiment","0","4","even","NA","10108","160489","NA","5871","244534","241529","242531","243533","NA","NA","244534","NA","NA","160491","8108","240516","242030","243032","244034","240496","241517","240406","240496","161491","New experiment","yes","1024"
"<opensesame_plugins.lsl_start.liblsl.LSL_session object at 0x000001FC3E7A3CC0>","1","black","[0.0, 0.0]","legacy","0","uniform","56","0","1","0","0","56","56","56","56","1","NA","56","NA","0","1","0","56","56","56","56","56","NA","56","56","1","Wed Nov 17 18:00:17 2021","-7","The main experiment item","yes","experiment.osexp","C:/Users/elus/Demant/+Team OMEXP - Article/ISAAR 2021/Data/experiments","no","mono","no","18","no","white","no","Next","1000","no","768","20","1","20","C:/Users/elus/Documents/RecordingLSL_maybefinal/subject-4.csv","5","[<opensesame_plugins.lsl_start.liblsl.LSL_session object at 0x000001FC3E7A3CC0>]","Kafkaesque Koffka","3.2.7","3","0","2","1024","2","48000","-16","experiment","0","4","even","NA","10108","160489","NA","5871","248664","245659","246661","247663","NA","NA","248664","NA","NA","160491","8108","244644","246160","247162","248164","244616","245644","244536","244616","161491","New experiment","yes","1024"
"<opensesame_plugins.lsl_start.liblsl.LSL_session object at 0x000001FC3E7A3CC0>","1","black","[0.0, 0.0]","legacy","0","uniform","57","0","1","0","0","57","57","57","57","1","NA","57","NA","0","1","0","57","57","57","57","57","NA","57","57","1","Wed Nov 17 18:00:17 2021","-7","The main experiment item","yes","experiment.osexp","C:/Users/elus/Demant/+Team OMEXP - Article/ISAAR 2021/Data/experiments","no","mono","no","18","no","white","no","Next","1000","no","768","21","1","21","C:/Users/elus/Documents/RecordingLSL_maybefinal/subject-4.csv","5","[<opensesame_plugins.lsl_start.liblsl.LSL_session object at 0x000001FC3E7A3CC0>]","Kafkaesque Koffka","3.2.7","1","0","2","1024","2","48000","-16","experiment","0","4","even","NA","10108","160489","NA","5871","252792","249787","250789","251791","NA","NA","252792","NA","NA","160491","8108","248776","250288","251290","252292","248748","249776","248666","248748","161491","New experiment","yes","1024"
"<opensesame_plugins.lsl_start.liblsl.LSL_session object at 0x000001FC3E7A3CC0>","0","black","[0.0, 0.0]","legacy","0","uniform","58","0","1","0","0","58","58","58","58","1","NA","58","NA","0","1","0","58","58","58","58","58","NA","58","58","1","Wed Nov 17 18:00:17 2021","-7","The main experiment item","yes","experiment.osexp","C:/Users/elus/Demant/+Team OMEXP - Article/ISAAR 2021/Data/experiments","no","mono","no","18","no","white","no","Next","1000","no","768","22","1","22","C:/Users/elus/Documents/RecordingLSL_maybefinal/subject-4.csv","5","[<opensesame_plugins.lsl_start.liblsl.LSL_session object at 0x000001FC3E7A3CC0>]","Kafkaesque Koffka","3.2.7","2","0","2","1024","2","48000","-16","experiment","0","4","even","NA","10108","160489","NA","5871","256924","253918","254921","255923","NA","NA","256924","NA","NA","160491","8108","252905","254420","255422","256424","252877","253905","252797","252877","161491","New experiment","yes","1024"
"<opensesame_plugins.lsl_start.liblsl.LSL_session object at 0x000001FC3E7A3CC0>","1","black","[0.0, 0.0]","legacy","0","uniform","59","0","1","0","0","59","59","59","59","1","NA","59","NA","0","1","0","59","59","59","59","59","NA","59","59","1","Wed Nov 17 18:00:17 2021","-6.5","The main experiment item","yes","experiment.osexp","C:/Users/elus/Demant/+Team OMEXP - Article/ISAAR 2021/Data/experiments","no","mono","no","18","no","white","no","Next","1000","no","768","23","1","23","C:/Users/elus/Documents/RecordingLSL_maybefinal/subject-4.csv","5","[<opensesame_plugins.lsl_start.liblsl.LSL_session object at 0x000001FC3E7A3CC0>]","Kafkaesque Koffka","3.2.7","3","0","2","1024","2","48000","-16","experiment","0","4","even","NA","10108","160489","NA","5871","261143","258138","259140","260142","NA","NA","261143","NA","NA","160491","8108","257127","258639","259641","260643","257007","258127","256927","257007","161491","New experiment","yes","1024"
"<opensesame_plugins.lsl_start.liblsl.LSL_session object at 0x000001FC3E7A3CC0>","1","black","[0.0, 0.0]","legacy","0","uniform","60","0","1","0","0","60","60","60","60","1","NA","60","NA","0","1","0","60","60","60","60","60","NA","60","60","1","Wed Nov 17 18:00:17 2021","-6.5","The main experiment item","yes","experiment.osexp","C:/Users/elus/Demant/+Team OMEXP - Article/ISAAR 2021/Data/experiments","no","mono","no","18","no","white","no","Next","1000","no","768","24","1","24","C:/Users/elus/Documents/RecordingLSL_maybefinal/subject-4.csv","5","[<opensesame_plugins.lsl_start.liblsl.LSL_session object at 0x000001FC3E7A3CC0>]","Kafkaesque Koffka","3.2.7","1","0","2","1024","2","48000","-16","experiment","0","4","even","NA","10108","160489","NA","5871","265272","262267","263269","264271","NA","NA","265272","NA","NA","160491","8108","261258","262768","263770","264772","261227","262258","261145","261227","161491","New experiment","yes","1024"
"<opensesame_plugins.lsl_start.liblsl.LSL_session object at 0x000001FC3E7A3CC0>","1","black","[0.0, 0.0]","legacy","0","uniform","61","0","1","0","0","61","61","61","61","1","NA","61","NA","0","1","0","61","61","61","61","61","NA","61","61","1","Wed Nov 17 18:00:17 2021","-6.5","The main experiment item","yes","experiment.osexp","C:/Users/elus/Demant/+Team OMEXP - Article/ISAAR 2021/Data/experiments","no","mono","no","18","no","white","no","Next","1000","no","768","25","1","25","C:/Users/elus/Documents/RecordingLSL_maybefinal/subject-4.csv","5","[<opensesame_plugins.lsl_start.liblsl.LSL_session object at 0x000001FC3E7A3CC0>]","Kafkaesque Koffka","3.2.7","2","0","2","1024","2","48000","-16","experiment","0","4","even","NA","10108","160489","NA","5871","269403","266398","267400","268402","NA","NA","269403","NA","NA","160491","8108","265386","266899","267901","268903","265359","266386","265274","265359","161491","New experiment","yes","1024"
"<opensesame_plugins.lsl_start.liblsl.LSL_session object at 0x000001FC3E7A3CC0>","1","black","[0.0, 0.0]","legacy","0","uniform","62","0","1","0","0","62","62","62","62","1","NA","62","NA","0","1","0","62","62","62","62","62","NA","62","62","1","Wed Nov 17 18:00:17 2021","-7","The main experiment item","yes","experiment.osexp","C:/Users/elus/Demant/+Team OMEXP - Article/ISAAR 2021/Data/experiments","no","mono","no","18","no","white","no","Next","1000","no","768","26","1","26","C:/Users/elus/Documents/RecordingLSL_maybefinal/subject-4.csv","5","[<opensesame_plugins.lsl_start.liblsl.LSL_session object at 0x000001FC3E7A3CC0>]","Kafkaesque Koffka","3.2.7","3","0","2","1024","2","48000","-16","experiment","0","4","even","NA","10108","160489","NA","5871","273533","270527","271530","272532","NA","NA","273533","NA","NA","160491","8108","269512","271028","272031","273033","269484","270512","269405","269484","161491","New experiment","yes","1024"
"<opensesame_plugins.lsl_start.liblsl.LSL_session object at 0x000001FC3E7A3CC0>","1","black","[0.0, 0.0]","legacy","0","uniform","63","0","1","0","0","63","63","63","63","1","NA","63","NA","0","1","0","63","63","63","63","63","NA","63","63","1","Wed Nov 17 18:00:17 2021","-7","The main experiment item","yes","experiment.osexp","C:/Users/elus/Demant/+Team OMEXP - Article/ISAAR 2021/Data/experiments","no","mono","no","18","no","white","no","Next","1000","no","768","27","1","27","C:/Users/elus/Documents/RecordingLSL_maybefinal/subject-4.csv","5","[<opensesame_plugins.lsl_start.liblsl.LSL_session object at 0x000001FC3E7A3CC0>]","Kafkaesque Koffka","3.2.7","1","0","2","1024","2","48000","-16","experiment","0","4","even","NA","10108","160489","NA","5871","277663","274658","275660","276662","NA","NA","277663","NA","NA","160491","8108","273642","275159","276161","277163","273615","274642","273535","273615","161491","New experiment","yes","1024"
"<opensesame_plugins.lsl_start.liblsl.LSL_session object at 0x000001FC3E7A3CC0>","1","black","[0.0, 0.0]","legacy","0","uniform","64","0","1","0","0","64","64","64","64","1","NA","64","NA","0","1","0","64","64","64","64","64","NA","64","64","1","Wed Nov 17 18:00:17 2021","-7","The main experiment item","yes","experiment.osexp","C:/Users/elus/Demant/+Team OMEXP - Article/ISAAR 2021/Data/experiments","no","mono","no","18","no","white","no","Next","1000","no","768","28","1","28","C:/Users/elus/Documents/RecordingLSL_maybefinal/subject-4.csv","5","[<opensesame_plugins.lsl_start.liblsl.LSL_session object at 0x000001FC3E7A3CC0>]","Kafkaesque Koffka","3.2.7","2","0","2","1024","2","48000","-16","experiment","0","4","even","NA","10108","160489","NA","5871","281793","278788","279790","280792","NA","NA","281793","NA","NA","160491","8108","277774","279289","280291","281293","277746","278775","277665","277746","161491","New experiment","yes","1024"
"<opensesame_plugins.lsl_start.liblsl.LSL_session object at 0x000001FC3E7A3CC0>","1","black","[0.0, 0.0]","legacy","0","uniform","65","0","1","0","0","65","65","65","65","1","NA","65","NA","0","1","0","65","65","65","65","65","NA","65","65","1","Wed Nov 17 18:00:17 2021","-7.5","The main experiment item","yes","experiment.osexp","C:/Users/elus/Demant/+Team OMEXP - Article/ISAAR 2021/Data/experiments","no","mono","no","18","no","white","no","Next","1000","no","768","29","1","29","C:/Users/elus/Documents/RecordingLSL_maybefinal/subject-4.csv","5","[<opensesame_plugins.lsl_start.liblsl.LSL_session object at 0x000001FC3E7A3CC0>]","Kafkaesque Koffka","3.2.7","3","0","2","1024","2","48000","-16","experiment","0","4","even","NA","10108","160489","NA","5871","285924","282919","283921","284923","NA","NA","285924","NA","NA","160491","8108","281908","283420","284422","285424","281879","282908","281798","281879","161491","New experiment","yes","1024"
"<opensesame_plugins.lsl_start.liblsl.LSL_session object at 0x000001FC3E7A3CC0>","1","black","[0.0, 0.0]","legacy","0","uniform","66","0","1","0","0","66","66","66","66","1","NA","66","NA","0","1","0","66","66","66","66","66","NA","66","66","1","Wed Nov 17 18:00:17 2021","-7.5","The main experiment item","yes","experiment.osexp","C:/Users/elus/Demant/+Team OMEXP - Article/ISAAR 2021/Data/experiments","no","mono","no","18","no","white","no","Next","1000","no","768","30","1","30","C:/Users/elus/Documents/RecordingLSL_maybefinal/subject-4.csv","5","[<opensesame_plugins.lsl_start.liblsl.LSL_session object at 0x000001FC3E7A3CC0>]","Kafkaesque Koffka","3.2.7","1","0","2","1024","2","48000","-16","experiment","0","4","even","NA","10108","160489","NA","5871","290052","287047","288049","289051","NA","NA","290052","NA","NA","160491","8108","286035","287548","288550","289552","286006","287035","285926","286006","161491","New experiment","yes","1024"
"<opensesame_plugins.lsl_start.liblsl.LSL_session object at 0x000001FC3E7A3CC0>","0","black","[0.0, 0.0]","legacy","0","uniform","67","0","1","0","0","67","67","67","67","1","NA","67","NA","0","1","0","67","67","67","67","67","NA","67","67","1","Wed Nov 17 18:00:17 2021","-7.5","The main experiment item","yes","experiment.osexp","C:/Users/elus/Demant/+Team OMEXP - Article/ISAAR 2021/Data/experiments","no","mono","no","18","no","white","no","Next","1000","no","768","31","1","31","C:/Users/elus/Documents/RecordingLSL_maybefinal/subject-4.csv","5","[<opensesame_plugins.lsl_start.liblsl.LSL_session object at 0x000001FC3E7A3CC0>]","Kafkaesque Koffka","3.2.7","2","0","2","1024","2","48000","-16","experiment","0","4","even","NA","10108","160489","NA","5871","294193","291188","292190","293192","NA","NA","294193","NA","NA","160491","8108","290173","291689","292691","293693","290145","291174","290054","290145","161491","New experiment","yes","1024"
"<opensesame_plugins.lsl_start.liblsl.LSL_session object at 0x000001FC3E7A3CC0>","1","black","[0.0, 0.0]","legacy","0","uniform","68","0","1","0","0","68","68","68","68","1","NA","68","NA","0","1","0","68","68","68","68","68","NA","68","68","1","Wed Nov 17 18:00:17 2021","-7","The main experiment item","yes","experiment.osexp","C:/Users/elus/Demant/+Team OMEXP - Article/ISAAR 2021/Data/experiments","no","mono","no","18","no","white","no","Next","1000","no","768","32","1","32","C:/Users/elus/Documents/RecordingLSL_maybefinal/subject-4.csv","5","[<opensesame_plugins.lsl_start.liblsl.LSL_session object at 0x000001FC3E7A3CC0>]","Kafkaesque Koffka","3.2.7","3","0","2","1024","2","48000","-16","experiment","0","4","even","NA","10108","160489","NA","5871","298323","295318","296320","297322","NA","NA","298323","NA","NA","160491","8108","294304","295819","296821","297823","294274","295304","294195","294274","161491","New experiment","yes","1024"
"<opensesame_plugins.lsl_start.liblsl.LSL_session object at 0x000001FC3E7A3CC0>","1","black","[0.0, 0.0]","legacy","0","uniform","69","0","1","0","0","69","69","69","69","1","NA","69","NA","0","1","0","69","69","69","69","69","NA","69","69","1","Wed Nov 17 18:00:17 2021","-7","The main experiment item","yes","experiment.osexp","C:/Users/elus/Demant/+Team OMEXP - Article/ISAAR 2021/Data/experiments","no","mono","no","18","no","white","no","Next","1000","no","768","33","1","33","C:/Users/elus/Documents/RecordingLSL_maybefinal/subject-4.csv","5","[<opensesame_plugins.lsl_start.liblsl.LSL_session object at 0x000001FC3E7A3CC0>]","Kafkaesque Koffka","3.2.7","1","0","2","1024","2","48000","-16","experiment","0","4","even","NA","10108","160489","NA","5871","302454","299449","300451","301453","NA","NA","302454","NA","NA","160491","8108","298434","299950","300952","301954","298405","299434","298325","298405","161491","New experiment","yes","1024"
"<opensesame_plugins.lsl_start.liblsl.LSL_session object at 0x000001FC3E7A3CC0>","1","black","[0.0, 0.0]","legacy","0","uniform","70","0","1","0","0","70","70","70","70","1","NA","70","NA","0","1","0","70","70","70","70","70","NA","70","70","1","Wed Nov 17 18:00:17 2021","-7","The main experiment item","yes","experiment.osexp","C:/Users/elus/Demant/+Team OMEXP - Article/ISAAR 2021/Data/experiments","no","mono","no","18","no","white","no","Next","1000","no","768","34","1","34","C:/Users/elus/Documents/RecordingLSL_maybefinal/subject-4.csv","5","[<opensesame_plugins.lsl_start.liblsl.LSL_session object at 0x000001FC3E7A3CC0>]","Kafkaesque Koffka","3.2.7","2","0","2","1024","2","48000","-16","experiment","0","4","even","NA","10108","160489","NA","5871","306584","303579","304581","305583","NA","NA","306584","NA","NA","160491","8108","302566","304080","305082","306084","302539","303566","302456","302539","161491","New experiment","yes","1024"
"<opensesame_plugins.lsl_start.liblsl.LSL_session object at 0x000001FC3E7A3CC0>","1","black","[0.0, 0.0]","legacy","0","uniform","71","0","1","0","0","71","71","71","71","1","NA","71","NA","0","1","0","71","71","71","71","71","NA","71","71","1","Wed Nov 17 18:00:17 2021","-7.5","The main experiment item","yes","experiment.osexp","C:/Users/elus/Demant/+Team OMEXP - Article/ISAAR 2021/Data/experiments","no","mono","no","18","no","white","no","Next","1000","no","768","35","1","35","C:/Users/elus/Documents/RecordingLSL_maybefinal/subject-4.csv","5","[<opensesame_plugins.lsl_start.liblsl.LSL_session object at 0x000001FC3E7A3CC0>]","Kafkaesque Koffka","3.2.7","3","0","2","1024","2","48000","-16","experiment","0","4","even","NA","10108","160489","NA","5871","310712","307707","308709","309711","NA","NA","310712","NA","NA","160491","8108","306695","308208","309210","310212","306665","307695","306586","306665","161491","New experiment","yes","1024"
"<opensesame_plugins.lsl_start.liblsl.LSL_session object at 0x000001FC3E7A3CC0>","1","black","[0.0, 0.0]","legacy","0","uniform","72","0","2","0","0","72","72","72","72","2","NA","72","NA","0","2","0","72","72","72","72","72","NA","72","72","2","Wed Nov 17 18:00:17 2021","-6","The main experiment item","yes","experiment.osexp","C:/Users/elus/Demant/+Team OMEXP - Article/ISAAR 2021/Data/experiments","no","mono","no","18","no","white","no","Next","400","no","768","0","2","0","C:/Users/elus/Documents/RecordingLSL_maybefinal/subject-4.csv","10","[<opensesame_plugins.lsl_start.liblsl.LSL_session object at 0x000001FC3E7A3CC0>]","Kafkaesque Koffka","3.2.7","1","0","2","1024","2","48000","-16","experiment","0","4","even","NA","10108","310818","NA","5871","315933","312927","313930","314932","NA","NA","315933","NA","NA","310820","8108","311913","313429","314431","315433","311879","312913","310714","311879","311820","New experiment","yes","1024"
"<opensesame_plugins.lsl_start.liblsl.LSL_session object at 0x000001FC3E7A3CC0>","1","black","[0.0, 0.0]","legacy","0","uniform","73","0","2","0","0","73","73","73","73","2","NA","73","NA","0","2","0","73","73","73","73","73","NA","73","73","2","Wed Nov 17 18:00:17 2021","-6","The main experiment item","yes","experiment.osexp","C:/Users/elus/Demant/+Team OMEXP - Article/ISAAR 2021/Data/experiments","no","mono","no","18","no","white","no","Next","400","no","768","1","2","1","C:/Users/elus/Documents/RecordingLSL_maybefinal/subject-4.csv","10","[<opensesame_plugins.lsl_start.liblsl.LSL_session object at 0x000001FC3E7A3CC0>]","Kafkaesque Koffka","3.2.7","2","0","2","1024","2","48000","-16","experiment","0","4","even","NA","10108","310818","NA","5871","320092","317087","318089","319091","NA","NA","320092","NA","NA","310820","8108","316069","317588","318590","319592","316032","317069","315935","316032","311820","New experiment","yes","1024"
"<opensesame_plugins.lsl_start.liblsl.LSL_session object at 0x000001FC3E7A3CC0>","1","black","[0.0, 0.0]","legacy","0","uniform","74","0","2","0","0","74","74","74","74","2","NA","74","NA","0","2","0","74","74","74","74","74","NA","74","74","2","Wed Nov 17 18:00:17 2021","-6","The main experiment item","yes","experiment.osexp","C:/Users/elus/Demant/+Team OMEXP - Article/ISAAR 2021/Data/experiments","no","mono","no","18","no","white","no","Next","400","no","768","2","2","2","C:/Users/elus/Documents/RecordingLSL_maybefinal/subject-4.csv","10","[<opensesame_plugins.lsl_start.liblsl.LSL_session object at 0x000001FC3E7A3CC0>]","Kafkaesque Koffka","3.2.7","3","0","2","1024","2","48000","-16","experiment","0","4","even","NA","10108","310818","NA","5871","324244","321240","322241","323243","NA","NA","324244","NA","NA","310820","8108","320230","321740","322742","323744","320192","321230","320097","320192","311820","New experiment","yes","1024"
"<opensesame_plugins.lsl_start.liblsl.LSL_session object at 0x000001FC3E7A3CC0>","1","black","[0.0, 0.0]","legacy","0","uniform","75","0","2","0","0","75","75","75","75","2","NA","75","NA","0","2","0","75","75","75","75","75","NA","75","75","2","Wed Nov 17 18:00:17 2021","-7","The main experiment item","yes","experiment.osexp","C:/Users/elus/Demant/+Team OMEXP - Article/ISAAR 2021/Data/experiments","no","mono","no","18","no","white","no","Next","400","no","768","3","2","3","C:/Users/elus/Documents/RecordingLSL_maybefinal/subject-4.csv","10","[<opensesame_plugins.lsl_start.liblsl.LSL_session object at 0x000001FC3E7A3CC0>]","Kafkaesque Koffka","3.2.7","1","0","2","1024","2","48000","-16","experiment","0","4","even","NA","10108","310818","NA","5871","328419","325409","326412","327418","NA","NA","328419","NA","NA","310820","8108","324395","325911","326913","327919","324372","325395","324252","324372","311820","New experiment","yes","1024"
"<opensesame_plugins.lsl_start.liblsl.LSL_session object at 0x000001FC3E7A3CC0>","0","black","[0.0, 0.0]","legacy","0","uniform","76","0","2","0","0","76","76","76","76","2","NA","76","NA","0","2","0","76","76","76","76","76","NA","76","76","2","Wed Nov 17 18:00:17 2021","-7","The main experiment item","yes","experiment.osexp","C:/Users/elus/Demant/+Team OMEXP - Article/ISAAR 2021/Data/experiments","no","mono","no","18","no","white","no","Next","400","no","768","4","2","4","C:/Users/elus/Documents/RecordingLSL_maybefinal/subject-4.csv","10","[<opensesame_plugins.lsl_start.liblsl.LSL_session object at 0x000001FC3E7A3CC0>]","Kafkaesque Koffka","3.2.7","2","0","2","1024","2","48000","-16","experiment","0","4","even","NA","10108","310818","NA","5871","332573","329568","330570","331572","NA","NA","332573","NA","NA","310820","8108","328552","330069","331071","332073","328518","329552","328421","328518","311820","New experiment","yes","1024"
"<opensesame_plugins.lsl_start.liblsl.LSL_session object at 0x000001FC3E7A3CC0>","1","black","[0.0, 0.0]","legacy","0","uniform","77","0","2","0","0","77","77","77","77","2","NA","77","NA","0","2","0","77","77","77","77","77","NA","77","77","2","Wed Nov 17 18:00:17 2021","-6.5","The main experiment item","yes","experiment.osexp","C:/Users/elus/Demant/+Team OMEXP - Article/ISAAR 2021/Data/experiments","no","mono","no","18","no","white","no","Next","400","no","768","5","2","5","C:/Users/elus/Documents/RecordingLSL_maybefinal/subject-4.csv","10","[<opensesame_plugins.lsl_start.liblsl.LSL_session object at 0x000001FC3E7A3CC0>]","Kafkaesque Koffka","3.2.7","3","0","2","1024","2","48000","-16","experiment","0","4","even","NA","10108","310818","NA","5871","336750","333738","334740","335749","NA","NA","336750","NA","NA","310820","8108","332727","334239","335242","336250","332687","333727","332577","332686","311820","New experiment","yes","1024"
"<opensesame_plugins.lsl_start.liblsl.LSL_session object at 0x000001FC3E7A3CC0>","1","black","[0.0, 0.0]","legacy","0","uniform","78","0","2","0","0","78","78","78","78","2","NA","78","NA","0","2","0","78","78","78","78","78","NA","78","78","2","Wed Nov 17 18:00:17 2021","-6.5","The main experiment item","yes","experiment.osexp","C:/Users/elus/Demant/+Team OMEXP - Article/ISAAR 2021/Data/experiments","no","mono","no","18","no","white","no","Next","400","no","768","6","2","6","C:/Users/elus/Documents/RecordingLSL_maybefinal/subject-4.csv","10","[<opensesame_plugins.lsl_start.liblsl.LSL_session object at 0x000001FC3E7A3CC0>]","Kafkaesque Koffka","3.2.7","1","0","2","1024","2","48000","-16","experiment","0","4","even","NA","10108","310818","NA","5871","340903","337898","338900","339902","NA","NA","340903","NA","NA","310820","8108","336883","338399","339401","340403","336849","337883","336752","336849","311820","New experiment","yes","1024"
"<opensesame_plugins.lsl_start.liblsl.LSL_session object at 0x000001FC3E7A3CC0>","1","black","[0.0, 0.0]","legacy","0","uniform","79","0","2","0","0","79","79","79","79","2","NA","79","NA","0","2","0","79","79","79","79","79","NA","79","79","2","Wed Nov 17 18:00:17 2021","-6.5","The main experiment item","yes","experiment.osexp","C:/Users/elus/Demant/+Team OMEXP - Article/ISAAR 2021/Data/experiments","no","mono","no","18","no","white","no","Next","400","no","768","7","2","7","C:/Users/elus/Documents/RecordingLSL_maybefinal/subject-4.csv","10","[<opensesame_plugins.lsl_start.liblsl.LSL_session object at 0x000001FC3E7A3CC0>]","Kafkaesque Koffka","3.2.7","2","0","2","1024","2","48000","-16","experiment","0","4","even","NA","10108","310818","NA","5871","345071","342057","343065","344070","NA","NA","345071","NA","NA","310820","8108","341039","342559","343565","344571","341002","342039","340905","341002","311820","New experiment","yes","1024"
"<opensesame_plugins.lsl_start.liblsl.LSL_session object at 0x000001FC3E7A3CC0>","1","black","[0.0, 0.0]","legacy","0","uniform","80","0","2","0","0","80","80","80","80","2","NA","80","NA","0","2","0","80","80","80","80","80","NA","80","80","2","Wed Nov 17 18:00:17 2021","-7","The main experiment item","yes","experiment.osexp","C:/Users/elus/Demant/+Team OMEXP - Article/ISAAR 2021/Data/experiments","no","mono","no","18","no","white","no","Next","400","no","768","8","2","8","C:/Users/elus/Documents/RecordingLSL_maybefinal/subject-4.csv","10","[<opensesame_plugins.lsl_start.liblsl.LSL_session object at 0x000001FC3E7A3CC0>]","Kafkaesque Koffka","3.2.7","3","0","2","1024","2","48000","-16","experiment","0","4","even","NA","10108","310818","NA","5871","349223","346218","347220","348222","NA","NA","349223","NA","NA","310820","8108","345205","346719","347721","348723","345170","346205","345073","345170","311820","New experiment","yes","1024"
"<opensesame_plugins.lsl_start.liblsl.LSL_session object at 0x000001FC3E7A3CC0>","1","black","[0.0, 0.0]","legacy","0","uniform","81","0","2","0","0","81","81","81","81","2","NA","81","NA","0","2","0","81","81","81","81","81","NA","81","81","2","Wed Nov 17 18:00:17 2021","-7","The main experiment item","yes","experiment.osexp","C:/Users/elus/Demant/+Team OMEXP - Article/ISAAR 2021/Data/experiments","no","mono","no","18","no","white","no","Next","400","no","768","9","2","9","C:/Users/elus/Documents/RecordingLSL_maybefinal/subject-4.csv","10","[<opensesame_plugins.lsl_start.liblsl.LSL_session object at 0x000001FC3E7A3CC0>]","Kafkaesque Koffka","3.2.7","1","0","2","1024","2","48000","-16","experiment","0","4","even","NA","10108","310818","NA","5871","353383","350377","351380","352382","NA","NA","353383","NA","NA","310820","8108","349365","350879","351881","352883","349331","350365","349225","349331","311820","New experiment","yes","1024"
"<opensesame_plugins.lsl_start.liblsl.LSL_session object at 0x000001FC3E7A3CC0>","1","black","[0.0, 0.0]","legacy","0","uniform","82","0","2","0","0","82","82","82","82","2","NA","82","NA","0","2","0","82","82","82","82","82","NA","82","82","2","Wed Nov 17 18:00:17 2021","-7","The main experiment item","yes","experiment.osexp","C:/Users/elus/Demant/+Team OMEXP - Article/ISAAR 2021/Data/experiments","no","mono","no","18","no","white","no","Next","400","no","768","10","2","10","C:/Users/elus/Documents/RecordingLSL_maybefinal/subject-4.csv","10","[<opensesame_plugins.lsl_start.liblsl.LSL_session object at 0x000001FC3E7A3CC0>]","Kafkaesque Koffka","3.2.7","2","0","2","1024","2","48000","-16","experiment","0","4","even","NA","10108","310818","NA","5871","357542","354538","355539","356541","NA","NA","357542","NA","NA","310820","8108","353528","355038","356040","357042","353491","354528","353389","353491","311820","New experiment","yes","1024"
"<opensesame_plugins.lsl_start.liblsl.LSL_session object at 0x000001FC3E7A3CC0>","0","black","[0.0, 0.0]","legacy","0","uniform","83","0","2","0","0","83","83","83","83","2","NA","83","NA","0","2","0","83","83","83","83","83","NA","83","83","2","Wed Nov 17 18:00:17 2021","-7.5","The main experiment item","yes","experiment.osexp","C:/Users/elus/Demant/+Team OMEXP - Article/ISAAR 2021/Data/experiments","no","mono","no","18","no","white","no","Next","400","no","768","11","2","11","C:/Users/elus/Documents/RecordingLSL_maybefinal/subject-4.csv","10","[<opensesame_plugins.lsl_start.liblsl.LSL_session object at 0x000001FC3E7A3CC0>]","Kafkaesque Koffka","3.2.7","3","0","2","1024","2","48000","-16","experiment","0","4","even","NA","10108","310818","NA","5871","361703","358698","359700","360702","NA","NA","361703","NA","NA","310820","8108","357682","359199","360201","361203","357644","358682","357544","357644","311820","New experiment","yes","1024"
"<opensesame_plugins.lsl_start.liblsl.LSL_session object at 0x000001FC3E7A3CC0>","0","black","[0.0, 0.0]","legacy","0","uniform","84","0","2","0","0","84","84","84","84","2","NA","84","NA","0","2","0","84","84","84","84","84","NA","84","84","2","Wed Nov 17 18:00:17 2021","-7","The main experiment item","yes","experiment.osexp","C:/Users/elus/Demant/+Team OMEXP - Article/ISAAR 2021/Data/experiments","no","mono","no","18","no","white","no","Next","400","no","768","12","2","12","C:/Users/elus/Documents/RecordingLSL_maybefinal/subject-4.csv","10","[<opensesame_plugins.lsl_start.liblsl.LSL_session object at 0x000001FC3E7A3CC0>]","Kafkaesque Koffka","3.2.7","1","0","2","1024","2","48000","-16","experiment","0","4","even","NA","10108","310818","NA","5871","365863","362858","363860","364862","NA","NA","365863","NA","NA","310820","8108","361842","363359","364361","365363","361806","362842","361705","361806","311820","New experiment","yes","1024"
"<opensesame_plugins.lsl_start.liblsl.LSL_session object at 0x000001FC3E7A3CC0>","0","black","[0.0, 0.0]","legacy","0","uniform","85","0","2","0","0","85","85","85","85","2","NA","85","NA","0","2","0","85","85","85","85","85","NA","85","85","2","Wed Nov 17 18:00:17 2021","-6.5","The main experiment item","yes","experiment.osexp","C:/Users/elus/Demant/+Team OMEXP - Article/ISAAR 2021/Data/experiments","no","mono","no","18","no","white","no","Next","400","no","768","13","2","13","C:/Users/elus/Documents/RecordingLSL_maybefinal/subject-4.csv","10","[<opensesame_plugins.lsl_start.liblsl.LSL_session object at 0x000001FC3E7A3CC0>]","Kafkaesque Koffka","3.2.7","2","0","2","1024","2","48000","-16","experiment","0","4","even","NA","10108","310818","NA","5871","370033","367025","368031","369033","NA","NA","370033","NA","NA","310820","8108","366004","367526","368532","369533","365969","367004","365872","365969","311820","New experiment","yes","1024"
"<opensesame_plugins.lsl_start.liblsl.LSL_session object at 0x000001FC3E7A3CC0>","1","black","[0.0, 0.0]","legacy","0","uniform","86","0","2","0","0","86","86","86","86","2","NA","86","NA","0","2","0","86","86","86","86","86","NA","86","86","2","Wed Nov 17 18:00:17 2021","-6","The main experiment item","yes","experiment.osexp","C:/Users/elus/Demant/+Team OMEXP - Article/ISAAR 2021/Data/experiments","no","mono","no","18","no","white","no","Next","400","no","768","14","2","14","C:/Users/elus/Documents/RecordingLSL_maybefinal/subject-4.csv","10","[<opensesame_plugins.lsl_start.liblsl.LSL_session object at 0x000001FC3E7A3CC0>]","Kafkaesque Koffka","3.2.7","3","0","2","1024","2","48000","-16","experiment","0","4","even","NA","10108","310818","NA","5871","374183","371178","372180","373182","NA","NA","374183","NA","NA","310820","8108","370168","371679","372681","373683","370132","371168","370037","370132","311820","New experiment","yes","1024"
"<opensesame_plugins.lsl_start.liblsl.LSL_session object at 0x000001FC3E7A3CC0>","1","black","[0.0, 0.0]","legacy","0","uniform","87","0","2","0","0","87","87","87","87","2","NA","87","NA","0","2","0","87","87","87","87","87","NA","87","87","2","Wed Nov 17 18:00:17 2021","-6","The main experiment item","yes","experiment.osexp","C:/Users/elus/Demant/+Team OMEXP - Article/ISAAR 2021/Data/experiments","no","mono","no","18","no","white","no","Next","400","no","768","15","2","15","C:/Users/elus/Documents/RecordingLSL_maybefinal/subject-4.csv","10","[<opensesame_plugins.lsl_start.liblsl.LSL_session object at 0x000001FC3E7A3CC0>]","Kafkaesque Koffka","3.2.7","1","0","2","1024","2","48000","-16","experiment","0","4","even","NA","10108","310818","NA","5871","378334","375329","376331","377333","NA","NA","378334","NA","NA","310820","8108","374319","375830","376832","377834","374284","375319","374187","374284","311820","New experiment","yes","1024"
"<opensesame_plugins.lsl_start.liblsl.LSL_session object at 0x000001FC3E7A3CC0>","1","black","[0.0, 0.0]","legacy","0","uniform","88","0","2","0","0","88","88","88","88","2","NA","88","NA","0","2","0","88","88","88","88","88","NA","88","88","2","Wed Nov 17 18:00:17 2021","-6","The main experiment item","yes","experiment.osexp","C:/Users/elus/Demant/+Team OMEXP - Article/ISAAR 2021/Data/experiments","no","mono","no","18","no","white","no","Next","400","no","768","16","2","16","C:/Users/elus/Documents/RecordingLSL_maybefinal/subject-4.csv","10","[<opensesame_plugins.lsl_start.liblsl.LSL_session object at 0x000001FC3E7A3CC0>]","Kafkaesque Koffka","3.2.7","2","0","2","1024","2","48000","-16","experiment","0","4","even","NA","10108","310818","NA","5871","382493","379488","380490","381492","NA","NA","382493","NA","NA","310820","8108","378470","379989","380991","381993","378433","379470","378336","378433","311820","New experiment","yes","1024"
"<opensesame_plugins.lsl_start.liblsl.LSL_session object at 0x000001FC3E7A3CC0>","1","black","[0.0, 0.0]","legacy","0","uniform","89","0","2","0","0","89","89","89","89","2","NA","89","NA","0","2","0","89","89","89","89","89","NA","89","89","2","Wed Nov 17 18:00:17 2021","-6.5","The main experiment item","yes","experiment.osexp","C:/Users/elus/Demant/+Team OMEXP - Article/ISAAR 2021/Data/experiments","no","mono","no","18","no","white","no","Next","400","no","768","17","2","17","C:/Users/elus/Documents/RecordingLSL_maybefinal/subject-4.csv","10","[<opensesame_plugins.lsl_start.liblsl.LSL_session object at 0x000001FC3E7A3CC0>]","Kafkaesque Koffka","3.2.7","3","0","2","1024","2","48000","-16","experiment","0","4","even","NA","10108","310818","NA","5871","386643","383638","384640","385642","NA","NA","386643","NA","NA","310820","8108","382628","384139","385141","386143","382604","383628","382495","382604","311820","New experiment","yes","1024"
"<opensesame_plugins.lsl_start.liblsl.LSL_session object at 0x000001FC3E7A3CC0>","1","black","[0.0, 0.0]","legacy","0","uniform","90","0","2","0","0","90","90","90","90","2","NA","90","NA","0","2","0","90","90","90","90","90","NA","90","90","2","Wed Nov 17 18:00:17 2021","-6.5","The main experiment item","yes","experiment.osexp","C:/Users/elus/Demant/+Team OMEXP - Article/ISAAR 2021/Data/experiments","no","mono","no","18","no","white","no","Next","400","no","768","18","2","18","C:/Users/elus/Documents/RecordingLSL_maybefinal/subject-4.csv","10","[<opensesame_plugins.lsl_start.liblsl.LSL_session object at 0x000001FC3E7A3CC0>]","Kafkaesque Koffka","3.2.7","1","0","2","1024","2","48000","-16","experiment","0","4","even","NA","10108","310818","NA","5871","390803","387798","388800","389802","NA","NA","390803","NA","NA","310820","8108","386782","388299","389301","390303","386749","387782","386654","386749","311820","New experiment","yes","1024"
"<opensesame_plugins.lsl_start.liblsl.LSL_session object at 0x000001FC3E7A3CC0>","0","black","[0.0, 0.0]","legacy","0","uniform","91","0","2","0","0","91","91","91","91","2","NA","91","NA","0","2","0","91","91","91","91","91","NA","91","91","2","Wed Nov 17 18:00:17 2021","-6.5","The main experiment item","yes","experiment.osexp","C:/Users/elus/Demant/+Team OMEXP - Article/ISAAR 2021/Data/experiments","no","mono","no","18","no","white","no","Next","400","no","768","19","2","19","C:/Users/elus/Documents/RecordingLSL_maybefinal/subject-4.csv","10","[<opensesame_plugins.lsl_start.liblsl.LSL_session object at 0x000001FC3E7A3CC0>]","Kafkaesque Koffka","3.2.7","2","0","2","1024","2","48000","-16","experiment","0","4","even","NA","10108","310818","NA","5871","394963","391958","392960","393962","NA","NA","394963","NA","NA","310820","8108","390943","392459","393461","394463","390907","391944","390810","390907","311820","New experiment","yes","1024"
"<opensesame_plugins.lsl_start.liblsl.LSL_session object at 0x000001FC3E7A3CC0>","1","black","[0.0, 0.0]","legacy","0","uniform","92","0","2","0","0","92","92","92","92","2","NA","92","NA","0","2","0","92","92","92","92","92","NA","92","92","2","Wed Nov 17 18:00:17 2021","-6","The main experiment item","yes","experiment.osexp","C:/Users/elus/Demant/+Team OMEXP - Article/ISAAR 2021/Data/experiments","no","mono","no","18","no","white","no","Next","400","no","768","20","2","20","C:/Users/elus/Documents/RecordingLSL_maybefinal/subject-4.csv","10","[<opensesame_plugins.lsl_start.liblsl.LSL_session object at 0x000001FC3E7A3CC0>]","Kafkaesque Koffka","3.2.7","3","0","2","1024","2","48000","-16","experiment","0","4","even","NA","10108","310818","NA","5871","399133","396119","397126","398132","NA","NA","399133","NA","NA","310820","8108","395099","396620","397627","398633","395062","396100","394965","395062","311820","New experiment","yes","1024"
"<opensesame_plugins.lsl_start.liblsl.LSL_session object at 0x000001FC3E7A3CC0>","1","black","[0.0, 0.0]","legacy","0","uniform","93","0","2","0","0","93","93","93","93","2","NA","93","NA","0","2","0","93","93","93","93","93","NA","93","93","2","Wed Nov 17 18:00:17 2021","-6","The main experiment item","yes","experiment.osexp","C:/Users/elus/Demant/+Team OMEXP - Article/ISAAR 2021/Data/experiments","no","mono","no","18","no","white","no","Next","400","no","768","21","2","21","C:/Users/elus/Documents/RecordingLSL_maybefinal/subject-4.csv","10","[<opensesame_plugins.lsl_start.liblsl.LSL_session object at 0x000001FC3E7A3CC0>]","Kafkaesque Koffka","3.2.7","1","0","2","1024","2","48000","-16","experiment","0","4","even","NA","10108","310818","NA","5871","403294","400288","401291","402293","NA","NA","403294","NA","NA","310820","8108","399273","400790","401792","402794","399240","400273","399141","399240","311820","New experiment","yes","1024"
"<opensesame_plugins.lsl_start.liblsl.LSL_session object at 0x000001FC3E7A3CC0>","0","black","[0.0, 0.0]","legacy","0","uniform","94","0","2","0","0","94","94","94","94","2","NA","94","NA","0","2","0","94","94","94","94","94","NA","94","94","2","Wed Nov 17 18:00:17 2021","-6","The main experiment item","yes","experiment.osexp","C:/Users/elus/Demant/+Team OMEXP - Article/ISAAR 2021/Data/experiments","no","mono","no","18","no","white","no","Next","400","no","768","22","2","22","C:/Users/elus/Documents/RecordingLSL_maybefinal/subject-4.csv","10","[<opensesame_plugins.lsl_start.liblsl.LSL_session object at 0x000001FC3E7A3CC0>]","Kafkaesque Koffka","3.2.7","2","0","2","1024","2","48000","-16","experiment","0","4","even","NA","10108","310818","NA","5871","407450","404439","405441","406449","NA","NA","407450","NA","NA","310820","8108","403430","404940","405942","406950","403406","404430","403296","403406","311820","New experiment","yes","1024"
"<opensesame_plugins.lsl_start.liblsl.LSL_session object at 0x000001FC3E7A3CC0>","1","black","[0.0, 0.0]","legacy","0","uniform","95","0","2","0","0","95","95","95","95","2","NA","95","NA","0","2","0","95","95","95","95","95","NA","95","95","2","Wed Nov 17 18:00:17 2021","-5.5","The main experiment item","yes","experiment.osexp","C:/Users/elus/Demant/+Team OMEXP - Article/ISAAR 2021/Data/experiments","no","mono","no","18","no","white","no","Next","400","no","768","23","2","23","C:/Users/elus/Documents/RecordingLSL_maybefinal/subject-4.csv","10","[<opensesame_plugins.lsl_start.liblsl.LSL_session object at 0x000001FC3E7A3CC0>]","Kafkaesque Koffka","3.2.7","3","0","2","1024","2","48000","-16","experiment","0","4","even","NA","10108","310818","NA","5871","411603","408588","409596","410602","NA","NA","411603","NA","NA","310820","8108","407575","409090","410097","411103","407534","408575","407453","407534","311820","New experiment","yes","1024"
"<opensesame_plugins.lsl_start.liblsl.LSL_session object at 0x000001FC3E7A3CC0>","1","black","[0.0, 0.0]","legacy","0","uniform","96","0","2","0","0","96","96","96","96","2","NA","96","NA","0","2","0","96","96","96","96","96","NA","96","96","2","Wed Nov 17 18:00:17 2021","-5.5","The main experiment item","yes","experiment.osexp","C:/Users/elus/Demant/+Team OMEXP - Article/ISAAR 2021/Data/experiments","no","mono","no","18","no","white","no","Next","400","no","768","24","2","24","C:/Users/elus/Documents/RecordingLSL_maybefinal/subject-4.csv","10","[<opensesame_plugins.lsl_start.liblsl.LSL_session object at 0x000001FC3E7A3CC0>]","Kafkaesque Koffka","3.2.7","1","0","2","1024","2","48000","-16","experiment","0","4","even","NA","10108","310818","NA","5871","415755","412749","413752","414754","NA","NA","415755","NA","NA","310820","8108","411736","413251","414253","415255","411702","412736","411605","411702","311820","New experiment","yes","1024"
"<opensesame_plugins.lsl_start.liblsl.LSL_session object at 0x000001FC3E7A3CC0>","1","black","[0.0, 0.0]","legacy","0","uniform","97","0","2","0","0","97","97","97","97","2","NA","97","NA","0","2","0","97","97","97","97","97","NA","97","97","2","Wed Nov 17 18:00:17 2021","-5.5","The main experiment item","yes","experiment.osexp","C:/Users/elus/Demant/+Team OMEXP - Article/ISAAR 2021/Data/experiments","no","mono","no","18","no","white","no","Next","400","no","768","25","2","25","C:/Users/elus/Documents/RecordingLSL_maybefinal/subject-4.csv","10","[<opensesame_plugins.lsl_start.liblsl.LSL_session object at 0x000001FC3E7A3CC0>]","Kafkaesque Koffka","3.2.7","2","0","2","1024","2","48000","-16","experiment","0","4","even","NA","10108","310818","NA","5871","419922","416909","417918","418921","NA","NA","419922","NA","NA","310820","8108","415890","417410","418420","419422","415866","416890","415757","415866","311820","New experiment","yes","1024"
"<opensesame_plugins.lsl_start.liblsl.LSL_session object at 0x000001FC3E7A3CC0>","1","black","[0.0, 0.0]","legacy","0","uniform","98","0","2","0","0","98","98","98","98","2","NA","98","NA","0","2","0","98","98","98","98","98","NA","98","98","2","Wed Nov 17 18:00:17 2021","-6","The main experiment item","yes","experiment.osexp","C:/Users/elus/Demant/+Team OMEXP - Article/ISAAR 2021/Data/experiments","no","mono","no","18","no","white","no","Next","400","no","768","26","2","26","C:/Users/elus/Documents/RecordingLSL_maybefinal/subject-4.csv","10","[<opensesame_plugins.lsl_start.liblsl.LSL_session object at 0x000001FC3E7A3CC0>]","Kafkaesque Koffka","3.2.7","3","0","2","1024","2","48000","-16","experiment","0","4","even","NA","10108","310818","NA","5871","424086","421081","422083","423085","NA","NA","424086","NA","NA","310820","8108","420063","421582","422584","423586","420027","421063","419924","420027","311820","New experiment","yes","1024"
"<opensesame_plugins.lsl_start.liblsl.LSL_session object at 0x000001FC3E7A3CC0>","1","black","[0.0, 0.0]","legacy","0","uniform","99","0","2","0","0","99","99","99","99","2","NA","99","NA","0","2","0","99","99","99","99","99","NA","99","99","2","Wed Nov 17 18:00:17 2021","-6","The main experiment item","yes","experiment.osexp","C:/Users/elus/Demant/+Team OMEXP - Article/ISAAR 2021/Data/experiments","no","mono","no","18","no","white","no","Next","400","no","768","27","2","27","C:/Users/elus/Documents/RecordingLSL_maybefinal/subject-4.csv","10","[<opensesame_plugins.lsl_start.liblsl.LSL_session object at 0x000001FC3E7A3CC0>]","Kafkaesque Koffka","3.2.7","1","0","2","1024","2","48000","-16","experiment","0","4","even","NA","10108","310818","NA","5871","428244","425239","426241","427243","NA","NA","428244","NA","NA","310820","8108","424227","425740","426742","427744","424192","425227","424090","424192","311820","New experiment","yes","1024"
"<opensesame_plugins.lsl_start.liblsl.LSL_session object at 0x000001FC3E7A3CC0>","1","black","[0.0, 0.0]","legacy","0","uniform","100","0","2","0","0","100","100","100","100","2","NA","100","NA","0","2","0","100","100","100","100","100","NA","100","100","2","Wed Nov 17 18:00:17 2021","-6","The main experiment item","yes","experiment.osexp","C:/Users/elus/Demant/+Team OMEXP - Article/ISAAR 2021/Data/experiments","no","mono","no","18","no","white","no","Next","400","no","768","28","2","28","C:/Users/elus/Documents/RecordingLSL_maybefinal/subject-4.csv","10","[<opensesame_plugins.lsl_start.liblsl.LSL_session object at 0x000001FC3E7A3CC0>]","Kafkaesque Koffka","3.2.7","2","0","2","1024","2","48000","-16","experiment","0","4","even","NA","10108","310818","NA","5871","432404","429399","430401","431403","NA","NA","432404","NA","NA","310820","8108","428383","429900","430902","431904","428347","429384","428246","428347","311820","New experiment","yes","1024"
"<opensesame_plugins.lsl_start.liblsl.LSL_session object at 0x000001FC3E7A3CC0>","1","black","[0.0, 0.0]","legacy","0","uniform","101","0","2","0","0","101","101","101","101","2","NA","101","NA","0","2","0","101","101","101","101","101","NA","101","101","2","Wed Nov 17 18:00:17 2021","-6.5","The main experiment item","yes","experiment.osexp","C:/Users/elus/Demant/+Team OMEXP - Article/ISAAR 2021/Data/experiments","no","mono","no","18","no","white","no","Next","400","no","768","29","2","29","C:/Users/elus/Documents/RecordingLSL_maybefinal/subject-4.csv","10","[<opensesame_plugins.lsl_start.liblsl.LSL_session object at 0x000001FC3E7A3CC0>]","Kafkaesque Koffka","3.2.7","3","0","2","1024","2","48000","-16","experiment","0","4","even","NA","10108","310818","NA","5871","436564","433558","434560","435562","NA","NA","436564","NA","NA","310820","8108","432541","434059","435061","436063","432514","433541","432406","432514","311820","New experiment","yes","1024"
"<opensesame_plugins.lsl_start.liblsl.LSL_session object at 0x000001FC3E7A3CC0>","1","black","[0.0, 0.0]","legacy","0","uniform","102","0","2","0","0","102","102","102","102","2","NA","102","NA","0","2","0","102","102","102","102","102","NA","102","102","2","Wed Nov 17 18:00:17 2021","-6.5","The main experiment item","yes","experiment.osexp","C:/Users/elus/Demant/+Team OMEXP - Article/ISAAR 2021/Data/experiments","no","mono","no","18","no","white","no","Next","400","no","768","30","2","30","C:/Users/elus/Documents/RecordingLSL_maybefinal/subject-4.csv","10","[<opensesame_plugins.lsl_start.liblsl.LSL_session object at 0x000001FC3E7A3CC0>]","Kafkaesque Koffka","3.2.7","1","0","2","1024","2","48000","-16","experiment","0","4","even","NA","10108","310818","NA","5871","440738","437719","438726","439737","NA","NA","440738","NA","NA","310820","8108","436700","438220","439227","440238","436664","437700","436566","436664","311820","New experiment","yes","1024"
