"LSL","answer","background","calibration","canvas_backend","compensation","coordinates","count_change","count_cond_loop","count_condition","count_end","count_experiment","count_generate_answer","count_neutral","count_neutral_2","count_neutral_3","count_new_adaptive_init","count_new_calibration_light","count_new_logger","count_new_lsl_start_1","count_new_lsl_stop","count_new_sketchpad","count_new_sketchpad_1","count_new_sketchpad_2","count_sig1","count_sig2","count_sig3","count_sound_generation","count_stimulus","count_tracking","count_trial","count_trial_loop","datetime","depth","description","disable_garbage_collection","experiment_file","experiment_path","font_bold","font_family","font_italic","font_size","font_underline","foreground","form_clicks","form_response","frequency","fullscreen","height","live_row","live_row_cond_loop","live_row_trial_loop","logfile","mod_freq","notifiers","opensesame_codename","opensesame_version","position","repeat_cycle","round_decimals","sound_buf_size","sound_channels","sound_freq","sound_sample_size","start","stop","subject_nr","subject_parity","time_change","time_cond_loop","time_condition","time_end","time_experiment","time_generate_answer","time_neutral","time_neutral_2","time_neutral_3","time_new_adaptive_init","time_new_calibration_light","time_new_logger","time_new_lsl_start_1","time_new_lsl_stop","time_new_sketchpad","time_new_sketchpad_1","time_new_sketchpad_2","time_sig1","time_sig2","time_sig3","time_sound_generation","time_stimulus","time_tracking","time_trial","time_trial_loop","title","uniform_coordinates","width"
"<opensesame_plugins.lsl_start.liblsl.LSL_session object at 0x000001A0CCF63C88>","1","black","[0.0, 0.0]","legacy","0","uniform","0","0","0","0","0","0","0","0","0","0","NA","0","NA","0","0","0","0","0","0","0","0","NA","0","0","0","Wed Nov 17 22:42:23 2021","-6","The main experiment item","yes","experiment.osexp","C:/Users/elus/Demant/+Team OMEXP - Article/ISAAR 2021/Data/experiments","no","mono","no","18","no","white","no","Next","400","no","768","0","0","0","C:/Users/elus/Documents/RecordingLSL_maybefinal/subject-10.csv","5","[<opensesame_plugins.lsl_start.liblsl.LSL_session object at 0x000001A0CCF63C88>]","Kafkaesque Koffka","3.2.7","1","0","2","1024","2","48000","-16","experiment","0","10","even","NA","11919","11949","NA","5606","17050","14045","15047","16049","NA","NA","17050","NA","NA","11951","9918","13038","14546","15548","16550","13003","14038","NA","13002","12951","New experiment","yes","1024"
"<opensesame_plugins.lsl_start.liblsl.LSL_session object at 0x000001A0CCF63C88>","1","black","[0.0, 0.0]","legacy","0","uniform","1","0","0","0","0","1","1","1","1","0","NA","1","NA","0","0","0","1","1","1","1","1","NA","1","1","0","Wed Nov 17 22:42:23 2021","-6","The main experiment item","yes","experiment.osexp","C:/Users/elus/Demant/+Team OMEXP - Article/ISAAR 2021/Data/experiments","no","mono","no","18","no","white","no","Next","400","no","768","1","0","1","C:/Users/elus/Documents/RecordingLSL_maybefinal/subject-10.csv","5","[<opensesame_plugins.lsl_start.liblsl.LSL_session object at 0x000001A0CCF63C88>]","Kafkaesque Koffka","3.2.7","2","0","2","1024","2","48000","-16","experiment","0","10","even","NA","11919","11949","NA","5606","21186","18181","19183","20185","NA","NA","21186","NA","NA","11951","9918","17162","18682","19684","20686","17136","18162","17055","17136","12951","New experiment","yes","1024"
"<opensesame_plugins.lsl_start.liblsl.LSL_session object at 0x000001A0CCF63C88>","1","black","[0.0, 0.0]","legacy","0","uniform","2","0","0","0","0","2","2","2","2","0","NA","2","NA","0","0","0","2","2","2","2","2","NA","2","2","0","Wed Nov 17 22:42:23 2021","-6","The main experiment item","yes","experiment.osexp","C:/Users/elus/Demant/+Team OMEXP - Article/ISAAR 2021/Data/experiments","no","mono","no","18","no","white","no","Next","400","no","768","2","0","2","C:/Users/elus/Documents/RecordingLSL_maybefinal/subject-10.csv","5","[<opensesame_plugins.lsl_start.liblsl.LSL_session object at 0x000001A0CCF63C88>]","Kafkaesque Koffka","3.2.7","3","0","2","1024","2","48000","-16","experiment","0","10","even","NA","11919","11949","NA","5606","25317","22312","23314","24316","NA","NA","25317","NA","NA","11951","9918","21294","22813","23815","24817","21268","22294","21188","21268","12951","New experiment","yes","1024"
"<opensesame_plugins.lsl_start.liblsl.LSL_session object at 0x000001A0CCF63C88>","1","black","[0.0, 0.0]","legacy","0","uniform","3","0","0","0","0","3","3","3","3","0","NA","3","NA","0","0","0","3","3","3","3","3","NA","3","3","0","Wed Nov 17 22:42:23 2021","-7","The main experiment item","yes","experiment.osexp","C:/Users/elus/Demant/+Team OMEXP - Article/ISAAR 2021/Data/experiments","no","mono","no","18","no","white","no","Next","400","no","768","3","0","3","C:/Users/elus/Documents/RecordingLSL_maybefinal/subject-10.csv","5","[<opensesame_plugins.lsl_start.liblsl.LSL_session object at 0x000001A0CCF63C88>]","Kafkaesque Koffka","3.2.7","1","0","2","1024","2","48000","-16","experiment","0","10","even","NA","11919","11949","NA","5606","29455","26450","27452","28454","NA","NA","29455","NA","NA","11951","9918","25439","26951","27953","28955","25406","26439","25319","25406","12951","New experiment","yes","1024"
"<opensesame_plugins.lsl_start.liblsl.LSL_session object at 0x000001A0CCF63C88>","1","black","[0.0, 0.0]","legacy","0","uniform","4","0","0","0","0","4","4","4","4","0","NA","4","NA","0","0","0","4","4","4","4","4","NA","4","4","0","Wed Nov 17 22:42:23 2021","-7","The main experiment item","yes","experiment.osexp","C:/Users/elus/Demant/+Team OMEXP - Article/ISAAR 2021/Data/experiments","no","mono","no","18","no","white","no","Next","400","no","768","4","0","4","C:/Users/elus/Documents/RecordingLSL_maybefinal/subject-10.csv","5","[<opensesame_plugins.lsl_start.liblsl.LSL_session object at 0x000001A0CCF63C88>]","Kafkaesque Koffka","3.2.7","2","0","2","1024","2","48000","-16","experiment","0","10","even","NA","11919","11949","NA","5606","33575","30570","31572","32574","NA","NA","33575","NA","NA","11951","9918","29560","31071","32073","33075","29534","30560","29457","29534","12951","New experiment","yes","1024"
"<opensesame_plugins.lsl_start.liblsl.LSL_session object at 0x000001A0CCF63C88>","1","black","[0.0, 0.0]","legacy","0","uniform","5","0","0","0","0","5","5","5","5","0","NA","5","NA","0","0","0","5","5","5","5","5","NA","5","5","0","Wed Nov 17 22:42:23 2021","-7","The main experiment item","yes","experiment.osexp","C:/Users/elus/Demant/+Team OMEXP - Article/ISAAR 2021/Data/experiments","no","mono","no","18","no","white","no","Next","400","no","768","5","0","5","C:/Users/elus/Documents/RecordingLSL_maybefinal/subject-10.csv","5","[<opensesame_plugins.lsl_start.liblsl.LSL_session object at 0x000001A0CCF63C88>]","Kafkaesque Koffka","3.2.7","3","0","2","1024","2","48000","-16","experiment","0","10","even","NA","11919","11949","NA","5606","37696","34690","35693","36695","NA","NA","37696","NA","NA","11951","9918","33679","35191","36194","37196","33653","34679","33577","33653","12951","New experiment","yes","1024"
"<opensesame_plugins.lsl_start.liblsl.LSL_session object at 0x000001A0CCF63C88>","0","black","[0.0, 0.0]","legacy","0","uniform","6","0","0","0","0","6","6","6","6","0","NA","6","NA","0","0","0","6","6","6","6","6","NA","6","6","0","Wed Nov 17 22:42:23 2021","-8","The main experiment item","yes","experiment.osexp","C:/Users/elus/Demant/+Team OMEXP - Article/ISAAR 2021/Data/experiments","no","mono","no","18","no","white","no","Next","400","no","768","6","0","6","C:/Users/elus/Documents/RecordingLSL_maybefinal/subject-10.csv","5","[<opensesame_plugins.lsl_start.liblsl.LSL_session object at 0x000001A0CCF63C88>]","Kafkaesque Koffka","3.2.7","1","0","2","1024","2","48000","-16","experiment","0","10","even","NA","11919","11949","NA","5606","41836","38831","39833","40835","NA","NA","41836","NA","NA","11951","9918","37815","39332","40334","41336","37789","38815","37698","37789","12951","New experiment","yes","1024"
"<opensesame_plugins.lsl_start.liblsl.LSL_session object at 0x000001A0CCF63C88>","0","black","[0.0, 0.0]","legacy","0","uniform","7","0","0","0","0","7","7","7","7","0","NA","7","NA","0","0","0","7","7","7","7","7","NA","7","7","0","Wed Nov 17 22:42:23 2021","-7.5","The main experiment item","yes","experiment.osexp","C:/Users/elus/Demant/+Team OMEXP - Article/ISAAR 2021/Data/experiments","no","mono","no","18","no","white","no","Next","400","no","768","7","0","7","C:/Users/elus/Documents/RecordingLSL_maybefinal/subject-10.csv","5","[<opensesame_plugins.lsl_start.liblsl.LSL_session object at 0x000001A0CCF63C88>]","Kafkaesque Koffka","3.2.7","2","0","2","1024","2","48000","-16","experiment","0","10","even","NA","11919","11949","NA","5606","45975","42970","43972","44974","NA","NA","45975","NA","NA","11951","9918","41955","43471","44473","45475","41927","42955","41838","41927","12951","New experiment","yes","1024"
"<opensesame_plugins.lsl_start.liblsl.LSL_session object at 0x000001A0CCF63C88>","1","black","[0.0, 0.0]","legacy","0","uniform","8","0","0","0","0","8","8","8","8","0","NA","8","NA","0","0","0","8","8","8","8","8","NA","8","8","0","Wed Nov 17 22:42:23 2021","-7","The main experiment item","yes","experiment.osexp","C:/Users/elus/Demant/+Team OMEXP - Article/ISAAR 2021/Data/experiments","no","mono","no","18","no","white","no","Next","400","no","768","8","0","8","C:/Users/elus/Documents/RecordingLSL_maybefinal/subject-10.csv","5","[<opensesame_plugins.lsl_start.liblsl.LSL_session object at 0x000001A0CCF63C88>]","Kafkaesque Koffka","3.2.7","3","0","2","1024","2","48000","-16","experiment","0","10","even","NA","11919","11949","NA","5606","50095","47090","48092","49094","NA","NA","50095","NA","NA","11951","9918","46081","47591","48593","49595","46055","47081","45977","46055","12951","New experiment","yes","1024"
"<opensesame_plugins.lsl_start.liblsl.LSL_session object at 0x000001A0CCF63C88>","1","black","[0.0, 0.0]","legacy","0","uniform","9","0","0","0","0","9","9","9","9","0","NA","9","NA","0","0","0","9","9","9","9","9","NA","9","9","0","Wed Nov 17 22:42:23 2021","-7","The main experiment item","yes","experiment.osexp","C:/Users/elus/Demant/+Team OMEXP - Article/ISAAR 2021/Data/experiments","no","mono","no","18","no","white","no","Next","400","no","768","9","0","9","C:/Users/elus/Documents/RecordingLSL_maybefinal/subject-10.csv","5","[<opensesame_plugins.lsl_start.liblsl.LSL_session object at 0x000001A0CCF63C88>]","Kafkaesque Koffka","3.2.7","1","0","2","1024","2","48000","-16","experiment","0","10","even","NA","11919","11949","NA","5606","54218","51213","52215","53217","NA","NA","54218","NA","NA","11951","9918","50203","51714","52716","53718","50176","51203","50097","50176","12951","New experiment","yes","1024"
"<opensesame_plugins.lsl_start.liblsl.LSL_session object at 0x000001A0CCF63C88>","0","black","[0.0, 0.0]","legacy","0","uniform","10","0","0","0","0","10","10","10","10","0","NA","10","NA","0","0","0","10","10","10","10","10","NA","10","10","0","Wed Nov 17 22:42:23 2021","-7","The main experiment item","yes","experiment.osexp","C:/Users/elus/Demant/+Team OMEXP - Article/ISAAR 2021/Data/experiments","no","mono","no","18","no","white","no","Next","400","no","768","10","0","10","C:/Users/elus/Documents/RecordingLSL_maybefinal/subject-10.csv","5","[<opensesame_plugins.lsl_start.liblsl.LSL_session object at 0x000001A0CCF63C88>]","Kafkaesque Koffka","3.2.7","2","0","2","1024","2","48000","-16","experiment","0","10","even","NA","11919","11949","NA","5606","58344","55340","56342","57344","NA","NA","58344","NA","NA","11951","9918","54324","55841","56843","57844","54299","55324","54220","54299","12951","New experiment","yes","1024"
"<opensesame_plugins.lsl_start.liblsl.LSL_session object at 0x000001A0CCF63C88>","1","black","[0.0, 0.0]","legacy","0","uniform","11","0","0","0","0","11","11","11","11","0","NA","11","NA","0","0","0","11","11","11","11","11","NA","11","11","0","Wed Nov 17 22:42:23 2021","-6.5","The main experiment item","yes","experiment.osexp","C:/Users/elus/Demant/+Team OMEXP - Article/ISAAR 2021/Data/experiments","no","mono","no","18","no","white","no","Next","400","no","768","11","0","11","C:/Users/elus/Documents/RecordingLSL_maybefinal/subject-10.csv","5","[<opensesame_plugins.lsl_start.liblsl.LSL_session object at 0x000001A0CCF63C88>]","Kafkaesque Koffka","3.2.7","3","0","2","1024","2","48000","-16","experiment","0","10","even","NA","11919","11949","NA","5606","62575","59570","60572","61574","NA","NA","62575","NA","NA","11951","9918","58561","60071","61073","62075","58425","59562","58346","58425","12951","New experiment","yes","1024"
"<opensesame_plugins.lsl_start.liblsl.LSL_session object at 0x000001A0CCF63C88>","1","black","[0.0, 0.0]","legacy","0","uniform","12","0","0","0","0","12","12","12","12","0","NA","12","NA","0","0","0","12","12","12","12","12","NA","12","12","0","Wed Nov 17 22:42:23 2021","-6.5","The main experiment item","yes","experiment.osexp","C:/Users/elus/Demant/+Team OMEXP - Article/ISAAR 2021/Data/experiments","no","mono","no","18","no","white","no","Next","400","no","768","12","0","12","C:/Users/elus/Documents/RecordingLSL_maybefinal/subject-10.csv","5","[<opensesame_plugins.lsl_start.liblsl.LSL_session object at 0x000001A0CCF63C88>]","Kafkaesque Koffka","3.2.7","1","0","2","1024","2","48000","-16","experiment","0","10","even","NA","11919","11949","NA","5606","66705","63700","64702","65704","NA","NA","66705","NA","NA","11951","9918","62685","64201","65203","66205","62658","63685","62577","62658","12951","New experiment","yes","1024"
"<opensesame_plugins.lsl_start.liblsl.LSL_session object at 0x000001A0CCF63C88>","1","black","[0.0, 0.0]","legacy","0","uniform","13","0","0","0","0","13","13","13","13","0","NA","13","NA","0","0","0","13","13","13","13","13","NA","13","13","0","Wed Nov 17 22:42:23 2021","-6.5","The main experiment item","yes","experiment.osexp","C:/Users/elus/Demant/+Team OMEXP - Article/ISAAR 2021/Data/experiments","no","mono","no","18","no","white","no","Next","400","no","768","13","0","13","C:/Users/elus/Documents/RecordingLSL_maybefinal/subject-10.csv","5","[<opensesame_plugins.lsl_start.liblsl.LSL_session object at 0x000001A0CCF63C88>]","Kafkaesque Koffka","3.2.7","2","0","2","1024","2","48000","-16","experiment","0","10","even","NA","11919","11949","NA","5606","70837","67832","68834","69836","NA","NA","70837","NA","NA","11951","9918","66823","68333","69335","70337","66793","67823","66707","66793","12951","New experiment","yes","1024"
"<opensesame_plugins.lsl_start.liblsl.LSL_session object at 0x000001A0CCF63C88>","1","black","[0.0, 0.0]","legacy","0","uniform","14","0","0","0","0","14","14","14","14","0","NA","14","NA","0","0","0","14","14","14","14","14","NA","14","14","0","Wed Nov 17 22:42:23 2021","-7","The main experiment item","yes","experiment.osexp","C:/Users/elus/Demant/+Team OMEXP - Article/ISAAR 2021/Data/experiments","no","mono","no","18","no","white","no","Next","400","no","768","14","0","14","C:/Users/elus/Documents/RecordingLSL_maybefinal/subject-10.csv","5","[<opensesame_plugins.lsl_start.liblsl.LSL_session object at 0x000001A0CCF63C88>]","Kafkaesque Koffka","3.2.7","3","0","2","1024","2","48000","-16","experiment","0","10","even","NA","11919","11949","NA","5606","74966","71961","72963","73965","NA","NA","74966","NA","NA","11951","9918","70947","72462","73464","74466","70919","71947","70839","70919","12951","New experiment","yes","1024"
"<opensesame_plugins.lsl_start.liblsl.LSL_session object at 0x000001A0CCF63C88>","0","black","[0.0, 0.0]","legacy","0","uniform","15","0","0","0","0","15","15","15","15","0","NA","15","NA","0","0","0","15","15","15","15","15","NA","15","15","0","Wed Nov 17 22:42:23 2021","-7","The main experiment item","yes","experiment.osexp","C:/Users/elus/Demant/+Team OMEXP - Article/ISAAR 2021/Data/experiments","no","mono","no","18","no","white","no","Next","400","no","768","15","0","15","C:/Users/elus/Documents/RecordingLSL_maybefinal/subject-10.csv","5","[<opensesame_plugins.lsl_start.liblsl.LSL_session object at 0x000001A0CCF63C88>]","Kafkaesque Koffka","3.2.7","1","0","2","1024","2","48000","-16","experiment","0","10","even","NA","11919","11949","NA","5606","79099","76093","77096","78098","NA","NA","79099","NA","NA","11951","9918","75075","76595","77597","78599","75046","76075","74968","75046","12951","New experiment","yes","1024"
"<opensesame_plugins.lsl_start.liblsl.LSL_session object at 0x000001A0CCF63C88>","1","black","[0.0, 0.0]","legacy","0","uniform","16","0","0","0","0","16","16","16","16","0","NA","16","NA","0","0","0","16","16","16","16","16","NA","16","16","0","Wed Nov 17 22:42:23 2021","-6.5","The main experiment item","yes","experiment.osexp","C:/Users/elus/Demant/+Team OMEXP - Article/ISAAR 2021/Data/experiments","no","mono","no","18","no","white","no","Next","400","no","768","16","0","16","C:/Users/elus/Documents/RecordingLSL_maybefinal/subject-10.csv","5","[<opensesame_plugins.lsl_start.liblsl.LSL_session object at 0x000001A0CCF63C88>]","Kafkaesque Koffka","3.2.7","2","0","2","1024","2","48000","-16","experiment","0","10","even","NA","11919","11949","NA","5606","83226","80220","81222","82224","NA","NA","83226","NA","NA","11951","9918","79205","80721","81723","82725","79179","80205","79101","79179","12951","New experiment","yes","1024"
"<opensesame_plugins.lsl_start.liblsl.LSL_session object at 0x000001A0CCF63C88>","1","black","[0.0, 0.0]","legacy","0","uniform","17","0","0","0","0","17","17","17","17","0","NA","17","NA","0","0","0","17","17","17","17","17","NA","17","17","0","Wed Nov 17 22:42:23 2021","-6.5","The main experiment item","yes","experiment.osexp","C:/Users/elus/Demant/+Team OMEXP - Article/ISAAR 2021/Data/experiments","no","mono","no","18","no","white","no","Next","400","no","768","17","0","17","C:/Users/elus/Documents/RecordingLSL_maybefinal/subject-10.csv","5","[<opensesame_plugins.lsl_start.liblsl.LSL_session object at 0x000001A0CCF63C88>]","Kafkaesque Koffka","3.2.7","3","0","2","1024","2","48000","-16","experiment","0","10","even","NA","11919","11949","NA","5606","87355","84350","85352","86354","NA","NA","87355","NA","NA","11951","9918","83339","84851","85853","86855","83310","84339","83230","83310","12951","New experiment","yes","1024"
"<opensesame_plugins.lsl_start.liblsl.LSL_session object at 0x000001A0CCF63C88>","1","black","[0.0, 0.0]","legacy","0","uniform","18","0","0","0","0","18","18","18","18","0","NA","18","NA","0","0","0","18","18","18","18","18","NA","18","18","0","Wed Nov 17 22:42:23 2021","-6.5","The main experiment item","yes","experiment.osexp","C:/Users/elus/Demant/+Team OMEXP - Article/ISAAR 2021/Data/experiments","no","mono","no","18","no","white","no","Next","400","no","768","18","0","18","C:/Users/elus/Documents/RecordingLSL_maybefinal/subject-10.csv","5","[<opensesame_plugins.lsl_start.liblsl.LSL_session object at 0x000001A0CCF63C88>]","Kafkaesque Koffka","3.2.7","1","0","2","1024","2","48000","-16","experiment","0","10","even","NA","11919","11949","NA","5606","91477","88472","89474","90476","NA","NA","91477","NA","NA","11951","9918","87463","88973","89975","90977","87437","88463","87357","87436","12951","New experiment","yes","1024"
"<opensesame_plugins.lsl_start.liblsl.LSL_session object at 0x000001A0CCF63C88>","1","black","[0.0, 0.0]","legacy","0","uniform","19","0","0","0","0","19","19","19","19","0","NA","19","NA","0","0","0","19","19","19","19","19","NA","19","19","0","Wed Nov 17 22:42:23 2021","-7","The main experiment item","yes","experiment.osexp","C:/Users/elus/Demant/+Team OMEXP - Article/ISAAR 2021/Data/experiments","no","mono","no","18","no","white","no","Next","400","no","768","19","0","19","C:/Users/elus/Documents/RecordingLSL_maybefinal/subject-10.csv","5","[<opensesame_plugins.lsl_start.liblsl.LSL_session object at 0x000001A0CCF63C88>]","Kafkaesque Koffka","3.2.7","2","0","2","1024","2","48000","-16","experiment","0","10","even","NA","11919","11949","NA","5606","95605","92600","93602","94604","NA","NA","95605","NA","NA","11951","9918","91586","93101","94103","95105","91558","92586","91479","91558","12951","New experiment","yes","1024"
"<opensesame_plugins.lsl_start.liblsl.LSL_session object at 0x000001A0CCF63C88>","1","black","[0.0, 0.0]","legacy","0","uniform","20","0","0","0","0","20","20","20","20","0","NA","20","NA","0","0","0","20","20","20","20","20","NA","20","20","0","Wed Nov 17 22:42:23 2021","-7","The main experiment item","yes","experiment.osexp","C:/Users/elus/Demant/+Team OMEXP - Article/ISAAR 2021/Data/experiments","no","mono","no","18","no","white","no","Next","400","no","768","20","0","20","C:/Users/elus/Documents/RecordingLSL_maybefinal/subject-10.csv","5","[<opensesame_plugins.lsl_start.liblsl.LSL_session object at 0x000001A0CCF63C88>]","Kafkaesque Koffka","3.2.7","3","0","2","1024","2","48000","-16","experiment","0","10","even","NA","11919","11949","NA","5606","99735","96730","97732","98734","NA","NA","99735","NA","NA","11951","9918","95715","97231","98233","99235","95687","96715","95607","95686","12951","New experiment","yes","1024"
"<opensesame_plugins.lsl_start.liblsl.LSL_session object at 0x000001A0CCF63C88>","1","black","[0.0, 0.0]","legacy","0","uniform","21","0","0","0","0","21","21","21","21","0","NA","21","NA","0","0","0","21","21","21","21","21","NA","21","21","0","Wed Nov 17 22:42:23 2021","-7","The main experiment item","yes","experiment.osexp","C:/Users/elus/Demant/+Team OMEXP - Article/ISAAR 2021/Data/experiments","no","mono","no","18","no","white","no","Next","400","no","768","21","0","21","C:/Users/elus/Documents/RecordingLSL_maybefinal/subject-10.csv","5","[<opensesame_plugins.lsl_start.liblsl.LSL_session object at 0x000001A0CCF63C88>]","Kafkaesque Koffka","3.2.7","1","0","2","1024","2","48000","-16","experiment","0","10","even","NA","11919","11949","NA","5606","103855","100850","101852","102854","NA","NA","103855","NA","NA","11951","9918","99840","101351","102353","103355","99815","100840","99737","99815","12951","New experiment","yes","1024"
"<opensesame_plugins.lsl_start.liblsl.LSL_session object at 0x000001A0CCF63C88>","0","black","[0.0, 0.0]","legacy","0","uniform","22","0","0","0","0","22","22","22","22","0","NA","22","NA","0","0","0","22","22","22","22","22","NA","22","22","0","Wed Nov 17 22:42:23 2021","-7.5","The main experiment item","yes","experiment.osexp","C:/Users/elus/Demant/+Team OMEXP - Article/ISAAR 2021/Data/experiments","no","mono","no","18","no","white","no","Next","400","no","768","22","0","22","C:/Users/elus/Documents/RecordingLSL_maybefinal/subject-10.csv","5","[<opensesame_plugins.lsl_start.liblsl.LSL_session object at 0x000001A0CCF63C88>]","Kafkaesque Koffka","3.2.7","2","0","2","1024","2","48000","-16","experiment","0","10","even","NA","11919","11949","NA","5606","107986","104981","105983","106985","NA","NA","107986","NA","NA","11951","9918","103962","105482","106484","107486","103936","104962","103857","103936","12951","New experiment","yes","1024"
"<opensesame_plugins.lsl_start.liblsl.LSL_session object at 0x000001A0CCF63C88>","0","black","[0.0, 0.0]","legacy","0","uniform","23","0","0","0","0","23","23","23","23","0","NA","23","NA","0","0","0","23","23","23","23","23","NA","23","23","0","Wed Nov 17 22:42:23 2021","-7","The main experiment item","yes","experiment.osexp","C:/Users/elus/Demant/+Team OMEXP - Article/ISAAR 2021/Data/experiments","no","mono","no","18","no","white","no","Next","400","no","768","23","0","23","C:/Users/elus/Documents/RecordingLSL_maybefinal/subject-10.csv","5","[<opensesame_plugins.lsl_start.liblsl.LSL_session object at 0x000001A0CCF63C88>]","Kafkaesque Koffka","3.2.7","3","0","2","1024","2","48000","-16","experiment","0","10","even","NA","11919","11949","NA","5606","112115","109110","110112","111114","NA","NA","112115","NA","NA","11951","9918","108095","109611","110613","111615","108067","109095","107988","108067","12951","New experiment","yes","1024"
"<opensesame_plugins.lsl_start.liblsl.LSL_session object at 0x000001A0CCF63C88>","1","black","[0.0, 0.0]","legacy","0","uniform","24","0","0","0","0","24","24","24","24","0","NA","24","NA","0","0","0","24","24","24","24","24","NA","24","24","0","Wed Nov 17 22:42:23 2021","-6.5","The main experiment item","yes","experiment.osexp","C:/Users/elus/Demant/+Team OMEXP - Article/ISAAR 2021/Data/experiments","no","mono","no","18","no","white","no","Next","400","no","768","24","0","24","C:/Users/elus/Documents/RecordingLSL_maybefinal/subject-10.csv","5","[<opensesame_plugins.lsl_start.liblsl.LSL_session object at 0x000001A0CCF63C88>]","Kafkaesque Koffka","3.2.7","1","0","2","1024","2","48000","-16","experiment","0","10","even","NA","11919","11949","NA","5606","116246","113241","114243","115245","NA","NA","116246","NA","NA","11951","9918","112226","113742","114744","115746","112197","113226","112117","112197","12951","New experiment","yes","1024"
"<opensesame_plugins.lsl_start.liblsl.LSL_session object at 0x000001A0CCF63C88>","0","black","[0.0, 0.0]","legacy","0","uniform","25","0","0","0","0","25","25","25","25","0","NA","25","NA","0","0","0","25","25","25","25","25","NA","25","25","0","Wed Nov 17 22:42:23 2021","-6.5","The main experiment item","yes","experiment.osexp","C:/Users/elus/Demant/+Team OMEXP - Article/ISAAR 2021/Data/experiments","no","mono","no","18","no","white","no","Next","400","no","768","25","0","25","C:/Users/elus/Documents/RecordingLSL_maybefinal/subject-10.csv","5","[<opensesame_plugins.lsl_start.liblsl.LSL_session object at 0x000001A0CCF63C88>]","Kafkaesque Koffka","3.2.7","2","0","2","1024","2","48000","-16","experiment","0","10","even","NA","11919","11949","NA","5606","120375","117370","118372","119374","NA","NA","120375","NA","NA","11951","9918","116359","117871","118873","119875","116331","117359","116251","116331","12951","New experiment","yes","1024"
"<opensesame_plugins.lsl_start.liblsl.LSL_session object at 0x000001A0CCF63C88>","0","black","[0.0, 0.0]","legacy","0","uniform","26","0","0","0","0","26","26","26","26","0","NA","26","NA","0","0","0","26","26","26","26","26","NA","26","26","0","Wed Nov 17 22:42:23 2021","-6","The main experiment item","yes","experiment.osexp","C:/Users/elus/Demant/+Team OMEXP - Article/ISAAR 2021/Data/experiments","no","mono","no","18","no","white","no","Next","400","no","768","26","0","26","C:/Users/elus/Documents/RecordingLSL_maybefinal/subject-10.csv","5","[<opensesame_plugins.lsl_start.liblsl.LSL_session object at 0x000001A0CCF63C88>]","Kafkaesque Koffka","3.2.7","3","0","2","1024","2","48000","-16","experiment","0","10","even","NA","11919","11949","NA","5606","124505","121500","122502","123504","NA","NA","124505","NA","NA","11951","9918","120491","122001","123003","124005","120463","121491","120384","120463","12951","New experiment","yes","1024"
"<opensesame_plugins.lsl_start.liblsl.LSL_session object at 0x000001A0CCF63C88>","1","black","[0.0, 0.0]","legacy","0","uniform","27","0","0","0","0","27","27","27","27","0","NA","27","NA","0","0","0","27","27","27","27","27","NA","27","27","0","Wed Nov 17 22:42:23 2021","-5.5","The main experiment item","yes","experiment.osexp","C:/Users/elus/Demant/+Team OMEXP - Article/ISAAR 2021/Data/experiments","no","mono","no","18","no","white","no","Next","400","no","768","27","0","27","C:/Users/elus/Documents/RecordingLSL_maybefinal/subject-10.csv","5","[<opensesame_plugins.lsl_start.liblsl.LSL_session object at 0x000001A0CCF63C88>]","Kafkaesque Koffka","3.2.7","1","0","2","1024","2","48000","-16","experiment","0","10","even","NA","11919","11949","NA","5606","128636","125631","126633","127635","NA","NA","128636","NA","NA","11951","9918","124615","126132","127134","128136","124585","125615","124507","124585","12951","New experiment","yes","1024"
"<opensesame_plugins.lsl_start.liblsl.LSL_session object at 0x000001A0CCF63C88>","1","black","[0.0, 0.0]","legacy","0","uniform","28","0","0","0","0","28","28","28","28","0","NA","28","NA","0","0","0","28","28","28","28","28","NA","28","28","0","Wed Nov 17 22:42:23 2021","-5.5","The main experiment item","yes","experiment.osexp","C:/Users/elus/Demant/+Team OMEXP - Article/ISAAR 2021/Data/experiments","no","mono","no","18","no","white","no","Next","400","no","768","28","0","28","C:/Users/elus/Documents/RecordingLSL_maybefinal/subject-10.csv","5","[<opensesame_plugins.lsl_start.liblsl.LSL_session object at 0x000001A0CCF63C88>]","Kafkaesque Koffka","3.2.7","2","0","2","1024","2","48000","-16","experiment","0","10","even","NA","11919","11949","NA","5606","132765","129760","130762","131764","NA","NA","132765","NA","NA","11951","9918","128746","130261","131263","132265","128717","129746","128638","128717","12951","New experiment","yes","1024"
"<opensesame_plugins.lsl_start.liblsl.LSL_session object at 0x000001A0CCF63C88>","1","black","[0.0, 0.0]","legacy","0","uniform","29","0","0","0","0","29","29","29","29","0","NA","29","NA","0","0","0","29","29","29","29","29","NA","29","29","0","Wed Nov 17 22:42:23 2021","-5.5","The main experiment item","yes","experiment.osexp","C:/Users/elus/Demant/+Team OMEXP - Article/ISAAR 2021/Data/experiments","no","mono","no","18","no","white","no","Next","400","no","768","29","0","29","C:/Users/elus/Documents/RecordingLSL_maybefinal/subject-10.csv","5","[<opensesame_plugins.lsl_start.liblsl.LSL_session object at 0x000001A0CCF63C88>]","Kafkaesque Koffka","3.2.7","3","0","2","1024","2","48000","-16","experiment","0","10","even","NA","11919","11949","NA","5606","136895","133890","134892","135894","NA","NA","136895","NA","NA","11951","9918","132880","134391","135393","136395","132849","133880","132771","132849","12951","New experiment","yes","1024"
"<opensesame_plugins.lsl_start.liblsl.LSL_session object at 0x000001A0CCF63C88>","1","black","[0.0, 0.0]","legacy","0","uniform","30","0","0","0","0","30","30","30","30","0","NA","30","NA","0","0","0","30","30","30","30","30","NA","30","30","0","Wed Nov 17 22:42:23 2021","-6","The main experiment item","yes","experiment.osexp","C:/Users/elus/Demant/+Team OMEXP - Article/ISAAR 2021/Data/experiments","no","mono","no","18","no","white","no","Next","400","no","768","30","0","30","C:/Users/elus/Documents/RecordingLSL_maybefinal/subject-10.csv","5","[<opensesame_plugins.lsl_start.liblsl.LSL_session object at 0x000001A0CCF63C88>]","Kafkaesque Koffka","3.2.7","1","0","2","1024","2","48000","-16","experiment","0","10","even","NA","11919","11949","NA","5606","141025","138021","139023","140024","NA","NA","141025","NA","NA","11951","9918","137004","138522","139524","140525","136976","138004","136897","136976","12951","New experiment","yes","1024"
"<opensesame_plugins.lsl_start.liblsl.LSL_session object at 0x000001A0CCF63C88>","1","black","[0.0, 0.0]","legacy","0","uniform","31","0","0","0","0","31","31","31","31","0","NA","31","NA","0","0","0","31","31","31","31","31","NA","31","31","0","Wed Nov 17 22:42:23 2021","-6","The main experiment item","yes","experiment.osexp","C:/Users/elus/Demant/+Team OMEXP - Article/ISAAR 2021/Data/experiments","no","mono","no","18","no","white","no","Next","400","no","768","31","0","31","C:/Users/elus/Documents/RecordingLSL_maybefinal/subject-10.csv","5","[<opensesame_plugins.lsl_start.liblsl.LSL_session object at 0x000001A0CCF63C88>]","Kafkaesque Koffka","3.2.7","2","0","2","1024","2","48000","-16","experiment","0","10","even","NA","11919","11949","NA","5606","145155","142150","143152","144154","NA","NA","145155","NA","NA","11951","9918","141137","142651","143653","144655","141108","142137","141027","141108","12951","New experiment","yes","1024"
"<opensesame_plugins.lsl_start.liblsl.LSL_session object at 0x000001A0CCF63C88>","0","black","[0.0, 0.0]","legacy","0","uniform","32","0","0","0","0","32","32","32","32","0","NA","32","NA","0","0","0","32","32","32","32","32","NA","32","32","0","Wed Nov 17 22:42:23 2021","-6","The main experiment item","yes","experiment.osexp","C:/Users/elus/Demant/+Team OMEXP - Article/ISAAR 2021/Data/experiments","no","mono","no","18","no","white","no","Next","400","no","768","32","0","32","C:/Users/elus/Documents/RecordingLSL_maybefinal/subject-10.csv","5","[<opensesame_plugins.lsl_start.liblsl.LSL_session object at 0x000001A0CCF63C88>]","Kafkaesque Koffka","3.2.7","3","0","2","1024","2","48000","-16","experiment","0","10","even","NA","11919","11949","NA","5606","149285","146280","147282","148284","NA","NA","149285","NA","NA","11951","9918","145265","146781","147783","148785","145237","146265","145157","145237","12951","New experiment","yes","1024"
"<opensesame_plugins.lsl_start.liblsl.LSL_session object at 0x000001A0CCF63C88>","1","black","[0.0, 0.0]","legacy","0","uniform","33","0","0","0","0","33","33","33","33","0","NA","33","NA","0","0","0","33","33","33","33","33","NA","33","33","0","Wed Nov 17 22:42:23 2021","-5.5","The main experiment item","yes","experiment.osexp","C:/Users/elus/Demant/+Team OMEXP - Article/ISAAR 2021/Data/experiments","no","mono","no","18","no","white","no","Next","400","no","768","33","0","33","C:/Users/elus/Documents/RecordingLSL_maybefinal/subject-10.csv","5","[<opensesame_plugins.lsl_start.liblsl.LSL_session object at 0x000001A0CCF63C88>]","Kafkaesque Koffka","3.2.7","1","0","2","1024","2","48000","-16","experiment","0","10","even","NA","11919","11949","NA","5606","153418","150411","151414","152417","NA","NA","153418","NA","NA","11951","9918","149394","150912","151916","152918","149368","150394","149289","149368","12951","New experiment","yes","1024"
"<opensesame_plugins.lsl_start.liblsl.LSL_session object at 0x000001A0CCF63C88>","1","black","[0.0, 0.0]","legacy","0","uniform","34","0","0","0","0","34","34","34","34","0","NA","34","NA","0","0","0","34","34","34","34","34","NA","34","34","0","Wed Nov 17 22:42:23 2021","-5.5","The main experiment item","yes","experiment.osexp","C:/Users/elus/Demant/+Team OMEXP - Article/ISAAR 2021/Data/experiments","no","mono","no","18","no","white","no","Next","400","no","768","34","0","34","C:/Users/elus/Documents/RecordingLSL_maybefinal/subject-10.csv","5","[<opensesame_plugins.lsl_start.liblsl.LSL_session object at 0x000001A0CCF63C88>]","Kafkaesque Koffka","3.2.7","2","0","2","1024","2","48000","-16","experiment","0","10","even","NA","11919","11949","NA","5606","157545","154540","155542","156544","NA","NA","157545","NA","NA","11951","9918","153527","155041","156043","157045","153498","154527","153420","153497","12951","New experiment","yes","1024"
"<opensesame_plugins.lsl_start.liblsl.LSL_session object at 0x000001A0CCF63C88>","1","black","[0.0, 0.0]","legacy","0","uniform","35","0","0","0","0","35","35","35","35","0","NA","35","NA","0","0","0","35","35","35","35","35","NA","35","35","0","Wed Nov 17 22:42:23 2021","-5.5","The main experiment item","yes","experiment.osexp","C:/Users/elus/Demant/+Team OMEXP - Article/ISAAR 2021/Data/experiments","no","mono","no","18","no","white","no","Next","400","no","768","35","0","35","C:/Users/elus/Documents/RecordingLSL_maybefinal/subject-10.csv","5","[<opensesame_plugins.lsl_start.liblsl.LSL_session object at 0x000001A0CCF63C88>]","Kafkaesque Koffka","3.2.7","3","0","2","1024","2","48000","-16","experiment","0","10","even","NA","11919","11949","NA","5606","161666","158662","159663","160665","NA","NA","161666","NA","NA","11951","9918","157653","159162","160164","161166","157627","158653","157547","157627","12951","New experiment","yes","1024"
"<opensesame_plugins.lsl_start.liblsl.LSL_session object at 0x000001A0CCF63C88>","1","black","[0.0, 0.0]","legacy","0","uniform","36","0","1","0","0","36","36","36","36","1","NA","36","NA","0","1","0","36","36","36","36","36","NA","36","36","1","Wed Nov 17 22:42:23 2021","-6","The main experiment item","yes","experiment.osexp","C:/Users/elus/Demant/+Team OMEXP - Article/ISAAR 2021/Data/experiments","no","mono","no","18","no","white","no","Next","1000","no","768","0","1","0","C:/Users/elus/Documents/RecordingLSL_maybefinal/subject-10.csv","5","[<opensesame_plugins.lsl_start.liblsl.LSL_session object at 0x000001A0CCF63C88>]","Kafkaesque Koffka","3.2.7","1","0","2","1024","2","48000","-16","experiment","0","10","even","NA","11919","161759","NA","5606","166845","163840","164842","165844","NA","NA","166845","NA","NA","161761","9918","162827","164341","165343","166345","162806","163827","161668","162806","162761","New experiment","yes","1024"
"<opensesame_plugins.lsl_start.liblsl.LSL_session object at 0x000001A0CCF63C88>","1","black","[0.0, 0.0]","legacy","0","uniform","37","0","1","0","0","37","37","37","37","1","NA","37","NA","0","1","0","37","37","37","37","37","NA","37","37","1","Wed Nov 17 22:42:23 2021","-6","The main experiment item","yes","experiment.osexp","C:/Users/elus/Demant/+Team OMEXP - Article/ISAAR 2021/Data/experiments","no","mono","no","18","no","white","no","Next","1000","no","768","1","1","1","C:/Users/elus/Documents/RecordingLSL_maybefinal/subject-10.csv","5","[<opensesame_plugins.lsl_start.liblsl.LSL_session object at 0x000001A0CCF63C88>]","Kafkaesque Koffka","3.2.7","2","0","2","1024","2","48000","-16","experiment","0","10","even","NA","11919","161759","NA","5606","170976","167971","168973","169975","NA","NA","170976","NA","NA","161761","9918","166954","168472","169474","170476","166928","167954","166849","166928","162761","New experiment","yes","1024"
"<opensesame_plugins.lsl_start.liblsl.LSL_session object at 0x000001A0CCF63C88>","1","black","[0.0, 0.0]","legacy","0","uniform","38","0","1","0","0","38","38","38","38","1","NA","38","NA","0","1","0","38","38","38","38","38","NA","38","38","1","Wed Nov 17 22:42:23 2021","-6","The main experiment item","yes","experiment.osexp","C:/Users/elus/Demant/+Team OMEXP - Article/ISAAR 2021/Data/experiments","no","mono","no","18","no","white","no","Next","1000","no","768","2","1","2","C:/Users/elus/Documents/RecordingLSL_maybefinal/subject-10.csv","5","[<opensesame_plugins.lsl_start.liblsl.LSL_session object at 0x000001A0CCF63C88>]","Kafkaesque Koffka","3.2.7","3","0","2","1024","2","48000","-16","experiment","0","10","even","NA","11919","161759","NA","5606","175105","172100","173102","174104","NA","NA","175105","NA","NA","161761","9918","171087","172601","173603","174605","171057","172087","170978","171057","162761","New experiment","yes","1024"
"<opensesame_plugins.lsl_start.liblsl.LSL_session object at 0x000001A0CCF63C88>","1","black","[0.0, 0.0]","legacy","0","uniform","39","0","1","0","0","39","39","39","39","1","NA","39","NA","0","1","0","39","39","39","39","39","NA","39","39","1","Wed Nov 17 22:42:23 2021","-7","The main experiment item","yes","experiment.osexp","C:/Users/elus/Demant/+Team OMEXP - Article/ISAAR 2021/Data/experiments","no","mono","no","18","no","white","no","Next","1000","no","768","3","1","3","C:/Users/elus/Documents/RecordingLSL_maybefinal/subject-10.csv","5","[<opensesame_plugins.lsl_start.liblsl.LSL_session object at 0x000001A0CCF63C88>]","Kafkaesque Koffka","3.2.7","1","0","2","1024","2","48000","-16","experiment","0","10","even","NA","11919","161759","NA","5606","179346","176341","177343","178345","NA","NA","179346","NA","NA","161761","9918","175328","176842","177844","178846","175198","176329","175107","175198","162761","New experiment","yes","1024"
"<opensesame_plugins.lsl_start.liblsl.LSL_session object at 0x000001A0CCF63C88>","1","black","[0.0, 0.0]","legacy","0","uniform","40","0","1","0","0","40","40","40","40","1","NA","40","NA","0","1","0","40","40","40","40","40","NA","40","40","1","Wed Nov 17 22:42:23 2021","-7","The main experiment item","yes","experiment.osexp","C:/Users/elus/Demant/+Team OMEXP - Article/ISAAR 2021/Data/experiments","no","mono","no","18","no","white","no","Next","1000","no","768","4","1","4","C:/Users/elus/Documents/RecordingLSL_maybefinal/subject-10.csv","5","[<opensesame_plugins.lsl_start.liblsl.LSL_session object at 0x000001A0CCF63C88>]","Kafkaesque Koffka","3.2.7","2","0","2","1024","2","48000","-16","experiment","0","10","even","NA","11919","161759","NA","5606","183476","180471","181473","182475","NA","NA","183476","NA","NA","161761","9918","179452","180972","181974","182976","179427","180452","179350","179427","162761","New experiment","yes","1024"
"<opensesame_plugins.lsl_start.liblsl.LSL_session object at 0x000001A0CCF63C88>","1","black","[0.0, 0.0]","legacy","0","uniform","41","0","1","0","0","41","41","41","41","1","NA","41","NA","0","1","0","41","41","41","41","41","NA","41","41","1","Wed Nov 17 22:42:23 2021","-7","The main experiment item","yes","experiment.osexp","C:/Users/elus/Demant/+Team OMEXP - Article/ISAAR 2021/Data/experiments","no","mono","no","18","no","white","no","Next","1000","no","768","5","1","5","C:/Users/elus/Documents/RecordingLSL_maybefinal/subject-10.csv","5","[<opensesame_plugins.lsl_start.liblsl.LSL_session object at 0x000001A0CCF63C88>]","Kafkaesque Koffka","3.2.7","3","0","2","1024","2","48000","-16","experiment","0","10","even","NA","11919","161759","NA","5606","187604","184600","185602","186604","NA","NA","187604","NA","NA","161761","9918","183584","185101","186103","187104","183557","184584","183480","183557","162761","New experiment","yes","1024"
"<opensesame_plugins.lsl_start.liblsl.LSL_session object at 0x000001A0CCF63C88>","1","black","[0.0, 0.0]","legacy","0","uniform","42","0","1","0","0","42","42","42","42","1","NA","42","NA","0","1","0","42","42","42","42","42","NA","42","42","1","Wed Nov 17 22:42:23 2021","-8","The main experiment item","yes","experiment.osexp","C:/Users/elus/Demant/+Team OMEXP - Article/ISAAR 2021/Data/experiments","no","mono","no","18","no","white","no","Next","1000","no","768","6","1","6","C:/Users/elus/Documents/RecordingLSL_maybefinal/subject-10.csv","5","[<opensesame_plugins.lsl_start.liblsl.LSL_session object at 0x000001A0CCF63C88>]","Kafkaesque Koffka","3.2.7","1","0","2","1024","2","48000","-16","experiment","0","10","even","NA","11919","161759","NA","5606","191745","188740","189742","190744","NA","NA","191745","NA","NA","161761","9918","187729","189241","190243","191245","187698","188729","187609","187698","162761","New experiment","yes","1024"
"<opensesame_plugins.lsl_start.liblsl.LSL_session object at 0x000001A0CCF63C88>","1","black","[0.0, 0.0]","legacy","0","uniform","43","0","1","0","0","43","43","43","43","1","NA","43","NA","0","1","0","43","43","43","43","43","NA","43","43","1","Wed Nov 17 22:42:23 2021","-8","The main experiment item","yes","experiment.osexp","C:/Users/elus/Demant/+Team OMEXP - Article/ISAAR 2021/Data/experiments","no","mono","no","18","no","white","no","Next","1000","no","768","7","1","7","C:/Users/elus/Documents/RecordingLSL_maybefinal/subject-10.csv","5","[<opensesame_plugins.lsl_start.liblsl.LSL_session object at 0x000001A0CCF63C88>]","Kafkaesque Koffka","3.2.7","2","0","2","1024","2","48000","-16","experiment","0","10","even","NA","11919","161759","NA","5606","195875","192870","193872","194874","NA","NA","195875","NA","NA","161761","9918","191854","193371","194373","195375","191825","192854","191747","191825","162761","New experiment","yes","1024"
"<opensesame_plugins.lsl_start.liblsl.LSL_session object at 0x000001A0CCF63C88>","1","black","[0.0, 0.0]","legacy","0","uniform","44","0","1","0","0","44","44","44","44","1","NA","44","NA","0","1","0","44","44","44","44","44","NA","44","44","1","Wed Nov 17 22:42:23 2021","-8","The main experiment item","yes","experiment.osexp","C:/Users/elus/Demant/+Team OMEXP - Article/ISAAR 2021/Data/experiments","no","mono","no","18","no","white","no","Next","1000","no","768","8","1","8","C:/Users/elus/Documents/RecordingLSL_maybefinal/subject-10.csv","5","[<opensesame_plugins.lsl_start.liblsl.LSL_session object at 0x000001A0CCF63C88>]","Kafkaesque Koffka","3.2.7","3","0","2","1024","2","48000","-16","experiment","0","10","even","NA","11919","161759","NA","5606","200005","197000","198002","199004","NA","NA","200005","NA","NA","161761","9918","195985","197501","198503","199505","195957","196985","195877","195957","162761","New experiment","yes","1024"
"<opensesame_plugins.lsl_start.liblsl.LSL_session object at 0x000001A0CCF63C88>","0","black","[0.0, 0.0]","legacy","0","uniform","45","0","1","0","0","45","45","45","45","1","NA","45","NA","0","1","0","45","45","45","45","45","NA","45","45","1","Wed Nov 17 22:42:23 2021","-9","The main experiment item","yes","experiment.osexp","C:/Users/elus/Demant/+Team OMEXP - Article/ISAAR 2021/Data/experiments","no","mono","no","18","no","white","no","Next","1000","no","768","9","1","9","C:/Users/elus/Documents/RecordingLSL_maybefinal/subject-10.csv","5","[<opensesame_plugins.lsl_start.liblsl.LSL_session object at 0x000001A0CCF63C88>]","Kafkaesque Koffka","3.2.7","1","0","2","1024","2","48000","-16","experiment","0","10","even","NA","11919","161759","NA","5606","204152","201141","202149","203150","NA","NA","204152","NA","NA","161761","9918","200128","201648","202650","203652","200100","201128","200007","200100","162761","New experiment","yes","1024"
"<opensesame_plugins.lsl_start.liblsl.LSL_session object at 0x000001A0CCF63C88>","1","black","[0.0, 0.0]","legacy","0","uniform","46","0","1","0","0","46","46","46","46","1","NA","46","NA","0","1","0","46","46","46","46","46","NA","46","46","1","Wed Nov 17 22:42:23 2021","-8.5","The main experiment item","yes","experiment.osexp","C:/Users/elus/Demant/+Team OMEXP - Article/ISAAR 2021/Data/experiments","no","mono","no","18","no","white","no","Next","1000","no","768","10","1","10","C:/Users/elus/Documents/RecordingLSL_maybefinal/subject-10.csv","5","[<opensesame_plugins.lsl_start.liblsl.LSL_session object at 0x000001A0CCF63C88>]","Kafkaesque Koffka","3.2.7","2","0","2","1024","2","48000","-16","experiment","0","10","even","NA","11919","161759","NA","5606","208295","205290","206292","207294","NA","NA","208295","NA","NA","161761","9918","204275","205791","206793","207795","204249","205275","204157","204249","162761","New experiment","yes","1024"
"<opensesame_plugins.lsl_start.liblsl.LSL_session object at 0x000001A0CCF63C88>","1","black","[0.0, 0.0]","legacy","0","uniform","47","0","1","0","0","47","47","47","47","1","NA","47","NA","0","1","0","47","47","47","47","47","NA","47","47","1","Wed Nov 17 22:42:23 2021","-8.5","The main experiment item","yes","experiment.osexp","C:/Users/elus/Demant/+Team OMEXP - Article/ISAAR 2021/Data/experiments","no","mono","no","18","no","white","no","Next","1000","no","768","11","1","11","C:/Users/elus/Documents/RecordingLSL_maybefinal/subject-10.csv","5","[<opensesame_plugins.lsl_start.liblsl.LSL_session object at 0x000001A0CCF63C88>]","Kafkaesque Koffka","3.2.7","3","0","2","1024","2","48000","-16","experiment","0","10","even","NA","11919","161759","NA","5606","212425","209421","210423","211424","NA","NA","212425","NA","NA","161761","9918","208404","209922","210923","211925","208377","209404","208297","208377","162761","New experiment","yes","1024"
"<opensesame_plugins.lsl_start.liblsl.LSL_session object at 0x000001A0CCF63C88>","1","black","[0.0, 0.0]","legacy","0","uniform","48","0","1","0","0","48","48","48","48","1","NA","48","NA","0","1","0","48","48","48","48","48","NA","48","48","1","Wed Nov 17 22:42:23 2021","-8.5","The main experiment item","yes","experiment.osexp","C:/Users/elus/Demant/+Team OMEXP - Article/ISAAR 2021/Data/experiments","no","mono","no","18","no","white","no","Next","1000","no","768","12","1","12","C:/Users/elus/Documents/RecordingLSL_maybefinal/subject-10.csv","5","[<opensesame_plugins.lsl_start.liblsl.LSL_session object at 0x000001A0CCF63C88>]","Kafkaesque Koffka","3.2.7","1","0","2","1024","2","48000","-16","experiment","0","10","even","NA","11919","161759","NA","5606","216559","213550","214556","215558","NA","NA","216559","NA","NA","161761","9918","212533","214055","215057","216059","212507","213533","212430","212507","162761","New experiment","yes","1024"
"<opensesame_plugins.lsl_start.liblsl.LSL_session object at 0x000001A0CCF63C88>","1","black","[0.0, 0.0]","legacy","0","uniform","49","0","1","0","0","49","49","49","49","1","NA","49","NA","0","1","0","49","49","49","49","49","NA","49","49","1","Wed Nov 17 22:42:23 2021","-9","The main experiment item","yes","experiment.osexp","C:/Users/elus/Demant/+Team OMEXP - Article/ISAAR 2021/Data/experiments","no","mono","no","18","no","white","no","Next","1000","no","768","13","1","13","C:/Users/elus/Documents/RecordingLSL_maybefinal/subject-10.csv","5","[<opensesame_plugins.lsl_start.liblsl.LSL_session object at 0x000001A0CCF63C88>]","Kafkaesque Koffka","3.2.7","2","0","2","1024","2","48000","-16","experiment","0","10","even","NA","11919","161759","NA","5606","220690","217681","218687","219689","NA","NA","220690","NA","NA","161761","9918","216666","218186","219188","220190","216639","217666","216561","216639","162761","New experiment","yes","1024"
"<opensesame_plugins.lsl_start.liblsl.LSL_session object at 0x000001A0CCF63C88>","0","black","[0.0, 0.0]","legacy","0","uniform","50","0","1","0","0","50","50","50","50","1","NA","50","NA","0","1","0","50","50","50","50","50","NA","50","50","1","Wed Nov 17 22:42:23 2021","-9","The main experiment item","yes","experiment.osexp","C:/Users/elus/Demant/+Team OMEXP - Article/ISAAR 2021/Data/experiments","no","mono","no","18","no","white","no","Next","1000","no","768","14","1","14","C:/Users/elus/Documents/RecordingLSL_maybefinal/subject-10.csv","5","[<opensesame_plugins.lsl_start.liblsl.LSL_session object at 0x000001A0CCF63C88>]","Kafkaesque Koffka","3.2.7","3","0","2","1024","2","48000","-16","experiment","0","10","even","NA","11919","161759","NA","5606","224826","221810","222823","223825","NA","NA","224826","NA","NA","161761","9918","220795","222322","223324","224326","220770","221795","220692","220770","162761","New experiment","yes","1024"
"<opensesame_plugins.lsl_start.liblsl.LSL_session object at 0x000001A0CCF63C88>","1","black","[0.0, 0.0]","legacy","0","uniform","51","0","1","0","0","51","51","51","51","1","NA","51","NA","0","1","0","51","51","51","51","51","NA","51","51","1","Wed Nov 17 22:42:23 2021","-8.5","The main experiment item","yes","experiment.osexp","C:/Users/elus/Demant/+Team OMEXP - Article/ISAAR 2021/Data/experiments","no","mono","no","18","no","white","no","Next","1000","no","768","15","1","15","C:/Users/elus/Documents/RecordingLSL_maybefinal/subject-10.csv","5","[<opensesame_plugins.lsl_start.liblsl.LSL_session object at 0x000001A0CCF63C88>]","Kafkaesque Koffka","3.2.7","1","0","2","1024","2","48000","-16","experiment","0","10","even","NA","11919","161759","NA","5606","228963","225950","226960","227962","NA","NA","228963","NA","NA","161761","9918","224934","226459","227461","228463","224906","225934","224828","224906","162761","New experiment","yes","1024"
"<opensesame_plugins.lsl_start.liblsl.LSL_session object at 0x000001A0CCF63C88>","0","black","[0.0, 0.0]","legacy","0","uniform","52","0","1","0","0","52","52","52","52","1","NA","52","NA","0","1","0","52","52","52","52","52","NA","52","52","1","Wed Nov 17 22:42:23 2021","-8.5","The main experiment item","yes","experiment.osexp","C:/Users/elus/Demant/+Team OMEXP - Article/ISAAR 2021/Data/experiments","no","mono","no","18","no","white","no","Next","1000","no","768","16","1","16","C:/Users/elus/Documents/RecordingLSL_maybefinal/subject-10.csv","5","[<opensesame_plugins.lsl_start.liblsl.LSL_session object at 0x000001A0CCF63C88>]","Kafkaesque Koffka","3.2.7","2","0","2","1024","2","48000","-16","experiment","0","10","even","NA","11919","161759","NA","5606","233094","230080","231090","232092","NA","NA","233094","NA","NA","161761","9918","229067","230589","231591","232594","229042","230068","228965","229042","162761","New experiment","yes","1024"
"<opensesame_plugins.lsl_start.liblsl.LSL_session object at 0x000001A0CCF63C88>","1","black","[0.0, 0.0]","legacy","0","uniform","53","0","1","0","0","53","53","53","53","1","NA","53","NA","0","1","0","53","53","53","53","53","NA","53","53","1","Wed Nov 17 22:42:23 2021","-8","The main experiment item","yes","experiment.osexp","C:/Users/elus/Demant/+Team OMEXP - Article/ISAAR 2021/Data/experiments","no","mono","no","18","no","white","no","Next","1000","no","768","17","1","17","C:/Users/elus/Documents/RecordingLSL_maybefinal/subject-10.csv","5","[<opensesame_plugins.lsl_start.liblsl.LSL_session object at 0x000001A0CCF63C88>]","Kafkaesque Koffka","3.2.7","3","0","2","1024","2","48000","-16","experiment","0","10","even","NA","11919","161759","NA","5606","237220","234210","235217","236219","NA","NA","237220","NA","NA","161761","9918","233201","234716","235718","236720","233174","234202","233096","233174","162761","New experiment","yes","1024"
"<opensesame_plugins.lsl_start.liblsl.LSL_session object at 0x000001A0CCF63C88>","1","black","[0.0, 0.0]","legacy","0","uniform","54","0","1","0","0","54","54","54","54","1","NA","54","NA","0","1","0","54","54","54","54","54","NA","54","54","1","Wed Nov 17 22:42:23 2021","-8","The main experiment item","yes","experiment.osexp","C:/Users/elus/Demant/+Team OMEXP - Article/ISAAR 2021/Data/experiments","no","mono","no","18","no","white","no","Next","1000","no","768","18","1","18","C:/Users/elus/Documents/RecordingLSL_maybefinal/subject-10.csv","5","[<opensesame_plugins.lsl_start.liblsl.LSL_session object at 0x000001A0CCF63C88>]","Kafkaesque Koffka","3.2.7","1","0","2","1024","2","48000","-16","experiment","0","10","even","NA","11919","161759","NA","5606","241358","238351","239355","240357","NA","NA","241358","NA","NA","161761","9918","237334","238853","239856","240858","237303","238334","237222","237303","162761","New experiment","yes","1024"
"<opensesame_plugins.lsl_start.liblsl.LSL_session object at 0x000001A0CCF63C88>","0","black","[0.0, 0.0]","legacy","0","uniform","55","0","1","0","0","55","55","55","55","1","NA","55","NA","0","1","0","55","55","55","55","55","NA","55","55","1","Wed Nov 17 22:42:23 2021","-8","The main experiment item","yes","experiment.osexp","C:/Users/elus/Demant/+Team OMEXP - Article/ISAAR 2021/Data/experiments","no","mono","no","18","no","white","no","Next","1000","no","768","19","1","19","C:/Users/elus/Documents/RecordingLSL_maybefinal/subject-10.csv","5","[<opensesame_plugins.lsl_start.liblsl.LSL_session object at 0x000001A0CCF63C88>]","Kafkaesque Koffka","3.2.7","2","0","2","1024","2","48000","-16","experiment","0","10","even","NA","11919","161759","NA","5606","245488","242480","243485","244487","NA","NA","245488","NA","NA","161761","9918","241465","242983","243986","244988","241438","242465","241360","241438","162761","New experiment","yes","1024"
"<opensesame_plugins.lsl_start.liblsl.LSL_session object at 0x000001A0CCF63C88>","1","black","[0.0, 0.0]","legacy","0","uniform","56","0","1","0","0","56","56","56","56","1","NA","56","NA","0","1","0","56","56","56","56","56","NA","56","56","1","Wed Nov 17 22:42:23 2021","-7.5","The main experiment item","yes","experiment.osexp","C:/Users/elus/Demant/+Team OMEXP - Article/ISAAR 2021/Data/experiments","no","mono","no","18","no","white","no","Next","1000","no","768","20","1","20","C:/Users/elus/Documents/RecordingLSL_maybefinal/subject-10.csv","5","[<opensesame_plugins.lsl_start.liblsl.LSL_session object at 0x000001A0CCF63C88>]","Kafkaesque Koffka","3.2.7","3","0","2","1024","2","48000","-16","experiment","0","10","even","NA","11919","161759","NA","5606","249625","246611","247622","248624","NA","NA","249625","NA","NA","161761","9918","245598","247121","248123","249125","245570","246598","245490","245570","162761","New experiment","yes","1024"
"<opensesame_plugins.lsl_start.liblsl.LSL_session object at 0x000001A0CCF63C88>","1","black","[0.0, 0.0]","legacy","0","uniform","57","0","1","0","0","57","57","57","57","1","NA","57","NA","0","1","0","57","57","57","57","57","NA","57","57","1","Wed Nov 17 22:42:23 2021","-7.5","The main experiment item","yes","experiment.osexp","C:/Users/elus/Demant/+Team OMEXP - Article/ISAAR 2021/Data/experiments","no","mono","no","18","no","white","no","Next","1000","no","768","21","1","21","C:/Users/elus/Documents/RecordingLSL_maybefinal/subject-10.csv","5","[<opensesame_plugins.lsl_start.liblsl.LSL_session object at 0x000001A0CCF63C88>]","Kafkaesque Koffka","3.2.7","1","0","2","1024","2","48000","-16","experiment","0","10","even","NA","11919","161759","NA","5606","253756","250740","251753","252755","NA","NA","253756","NA","NA","161761","9918","249731","251252","252254","253256","249706","250732","249627","249706","162761","New experiment","yes","1024"
"<opensesame_plugins.lsl_start.liblsl.LSL_session object at 0x000001A0CCF63C88>","1","black","[0.0, 0.0]","legacy","0","uniform","58","0","1","0","0","58","58","58","58","1","NA","58","NA","0","1","0","58","58","58","58","58","NA","58","58","1","Wed Nov 17 22:42:23 2021","-7.5","The main experiment item","yes","experiment.osexp","C:/Users/elus/Demant/+Team OMEXP - Article/ISAAR 2021/Data/experiments","no","mono","no","18","no","white","no","Next","1000","no","768","22","1","22","C:/Users/elus/Documents/RecordingLSL_maybefinal/subject-10.csv","5","[<opensesame_plugins.lsl_start.liblsl.LSL_session object at 0x000001A0CCF63C88>]","Kafkaesque Koffka","3.2.7","2","0","2","1024","2","48000","-16","experiment","0","10","even","NA","11919","161759","NA","5606","257894","254880","255891","256893","NA","NA","257894","NA","NA","161761","9918","253863","255390","256392","257394","253837","254863","253758","253837","162761","New experiment","yes","1024"
"<opensesame_plugins.lsl_start.liblsl.LSL_session object at 0x000001A0CCF63C88>","0","black","[0.0, 0.0]","legacy","0","uniform","59","0","1","0","0","59","59","59","59","1","NA","59","NA","0","1","0","59","59","59","59","59","NA","59","59","1","Wed Nov 17 22:42:23 2021","-8","The main experiment item","yes","experiment.osexp","C:/Users/elus/Demant/+Team OMEXP - Article/ISAAR 2021/Data/experiments","no","mono","no","18","no","white","no","Next","1000","no","768","23","1","23","C:/Users/elus/Documents/RecordingLSL_maybefinal/subject-10.csv","5","[<opensesame_plugins.lsl_start.liblsl.LSL_session object at 0x000001A0CCF63C88>]","Kafkaesque Koffka","3.2.7","3","0","2","1024","2","48000","-16","experiment","0","10","even","NA","11919","161759","NA","5606","262028","259020","260025","261027","NA","NA","262028","NA","NA","161761","9918","258005","259524","260526","261528","257977","259005","257896","257977","162761","New experiment","yes","1024"
"<opensesame_plugins.lsl_start.liblsl.LSL_session object at 0x000001A0CCF63C88>","0","black","[0.0, 0.0]","legacy","0","uniform","60","0","1","0","0","60","60","60","60","1","NA","60","NA","0","1","0","60","60","60","60","60","NA","60","60","1","Wed Nov 17 22:42:23 2021","-7.5","The main experiment item","yes","experiment.osexp","C:/Users/elus/Demant/+Team OMEXP - Article/ISAAR 2021/Data/experiments","no","mono","no","18","no","white","no","Next","1000","no","768","24","1","24","C:/Users/elus/Documents/RecordingLSL_maybefinal/subject-10.csv","5","[<opensesame_plugins.lsl_start.liblsl.LSL_session object at 0x000001A0CCF63C88>]","Kafkaesque Koffka","3.2.7","1","0","2","1024","2","48000","-16","experiment","0","10","even","NA","11919","161759","NA","5606","266164","263150","264161","265163","NA","NA","266164","NA","NA","161761","9918","262141","263660","264662","265664","262111","263141","262030","262111","162761","New experiment","yes","1024"
"<opensesame_plugins.lsl_start.liblsl.LSL_session object at 0x000001A0CCF63C88>","0","black","[0.0, 0.0]","legacy","0","uniform","61","0","1","0","0","61","61","61","61","1","NA","61","NA","0","1","0","61","61","61","61","61","NA","61","61","1","Wed Nov 17 22:42:23 2021","-7","The main experiment item","yes","experiment.osexp","C:/Users/elus/Demant/+Team OMEXP - Article/ISAAR 2021/Data/experiments","no","mono","no","18","no","white","no","Next","1000","no","768","25","1","25","C:/Users/elus/Documents/RecordingLSL_maybefinal/subject-10.csv","5","[<opensesame_plugins.lsl_start.liblsl.LSL_session object at 0x000001A0CCF63C88>]","Kafkaesque Koffka","3.2.7","2","0","2","1024","2","48000","-16","experiment","0","10","even","NA","11919","161759","NA","5606","270298","267290","268295","269297","NA","NA","270298","NA","NA","161761","9918","266276","267794","268796","269798","266249","267276","266169","266249","162761","New experiment","yes","1024"
"<opensesame_plugins.lsl_start.liblsl.LSL_session object at 0x000001A0CCF63C88>","1","black","[0.0, 0.0]","legacy","0","uniform","62","0","1","0","0","62","62","62","62","1","NA","62","NA","0","1","0","62","62","62","62","62","NA","62","62","1","Wed Nov 17 22:42:23 2021","-6.5","The main experiment item","yes","experiment.osexp","C:/Users/elus/Demant/+Team OMEXP - Article/ISAAR 2021/Data/experiments","no","mono","no","18","no","white","no","Next","1000","no","768","26","1","26","C:/Users/elus/Documents/RecordingLSL_maybefinal/subject-10.csv","5","[<opensesame_plugins.lsl_start.liblsl.LSL_session object at 0x000001A0CCF63C88>]","Kafkaesque Koffka","3.2.7","3","0","2","1024","2","48000","-16","experiment","0","10","even","NA","11919","161759","NA","5606","274428","271420","272425","273427","NA","NA","274428","NA","NA","161761","9918","270410","271924","272926","273928","270378","271410","270300","270378","162761","New experiment","yes","1024"
"<opensesame_plugins.lsl_start.liblsl.LSL_session object at 0x000001A0CCF63C88>","1","black","[0.0, 0.0]","legacy","0","uniform","63","0","1","0","0","63","63","63","63","1","NA","63","NA","0","1","0","63","63","63","63","63","NA","63","63","1","Wed Nov 17 22:42:23 2021","-6.5","The main experiment item","yes","experiment.osexp","C:/Users/elus/Demant/+Team OMEXP - Article/ISAAR 2021/Data/experiments","no","mono","no","18","no","white","no","Next","1000","no","768","27","1","27","C:/Users/elus/Documents/RecordingLSL_maybefinal/subject-10.csv","5","[<opensesame_plugins.lsl_start.liblsl.LSL_session object at 0x000001A0CCF63C88>]","Kafkaesque Koffka","3.2.7","1","0","2","1024","2","48000","-16","experiment","0","10","even","NA","11919","161759","NA","5606","278559","275542","276556","277558","NA","NA","278559","NA","NA","161761","9918","274533","276055","277057","278059","274508","275533","274430","274508","162761","New experiment","yes","1024"
"<opensesame_plugins.lsl_start.liblsl.LSL_session object at 0x000001A0CCF63C88>","1","black","[0.0, 0.0]","legacy","0","uniform","64","0","1","0","0","64","64","64","64","1","NA","64","NA","0","1","0","64","64","64","64","64","NA","64","64","1","Wed Nov 17 22:42:23 2021","-6.5","The main experiment item","yes","experiment.osexp","C:/Users/elus/Demant/+Team OMEXP - Article/ISAAR 2021/Data/experiments","no","mono","no","18","no","white","no","Next","1000","no","768","28","1","28","C:/Users/elus/Documents/RecordingLSL_maybefinal/subject-10.csv","5","[<opensesame_plugins.lsl_start.liblsl.LSL_session object at 0x000001A0CCF63C88>]","Kafkaesque Koffka","3.2.7","2","0","2","1024","2","48000","-16","experiment","0","10","even","NA","11919","161759","NA","5606","282696","279681","280693","281695","NA","NA","282696","NA","NA","161761","9918","278668","280192","281194","282196","278641","279668","278561","278641","162761","New experiment","yes","1024"
"<opensesame_plugins.lsl_start.liblsl.LSL_session object at 0x000001A0CCF63C88>","1","black","[0.0, 0.0]","legacy","0","uniform","65","0","1","0","0","65","65","65","65","1","NA","65","NA","0","1","0","65","65","65","65","65","NA","65","65","1","Wed Nov 17 22:42:23 2021","-7","The main experiment item","yes","experiment.osexp","C:/Users/elus/Demant/+Team OMEXP - Article/ISAAR 2021/Data/experiments","no","mono","no","18","no","white","no","Next","1000","no","768","29","1","29","C:/Users/elus/Documents/RecordingLSL_maybefinal/subject-10.csv","5","[<opensesame_plugins.lsl_start.liblsl.LSL_session object at 0x000001A0CCF63C88>]","Kafkaesque Koffka","3.2.7","3","0","2","1024","2","48000","-16","experiment","0","10","even","NA","11919","161759","NA","5606","286823","283812","284820","285822","NA","NA","286823","NA","NA","161761","9918","282803","284319","285321","286323","282778","283803","282698","282778","162761","New experiment","yes","1024"
"<opensesame_plugins.lsl_start.liblsl.LSL_session object at 0x000001A0CCF63C88>","1","black","[0.0, 0.0]","legacy","0","uniform","66","0","1","0","0","66","66","66","66","1","NA","66","NA","0","1","0","66","66","66","66","66","NA","66","66","1","Wed Nov 17 22:42:23 2021","-7","The main experiment item","yes","experiment.osexp","C:/Users/elus/Demant/+Team OMEXP - Article/ISAAR 2021/Data/experiments","no","mono","no","18","no","white","no","Next","1000","no","768","30","1","30","C:/Users/elus/Documents/RecordingLSL_maybefinal/subject-10.csv","5","[<opensesame_plugins.lsl_start.liblsl.LSL_session object at 0x000001A0CCF63C88>]","Kafkaesque Koffka","3.2.7","1","0","2","1024","2","48000","-16","experiment","0","10","even","NA","11919","161759","NA","5606","290963","287951","288960","289962","NA","NA","290963","NA","NA","161761","9918","286932","288459","289461","290463","286905","287932","286825","286905","162761","New experiment","yes","1024"
"<opensesame_plugins.lsl_start.liblsl.LSL_session object at 0x000001A0CCF63C88>","1","black","[0.0, 0.0]","legacy","0","uniform","67","0","1","0","0","67","67","67","67","1","NA","67","NA","0","1","0","67","67","67","67","67","NA","67","67","1","Wed Nov 17 22:42:23 2021","-7","The main experiment item","yes","experiment.osexp","C:/Users/elus/Demant/+Team OMEXP - Article/ISAAR 2021/Data/experiments","no","mono","no","18","no","white","no","Next","1000","no","768","31","1","31","C:/Users/elus/Documents/RecordingLSL_maybefinal/subject-10.csv","5","[<opensesame_plugins.lsl_start.liblsl.LSL_session object at 0x000001A0CCF63C88>]","Kafkaesque Koffka","3.2.7","2","0","2","1024","2","48000","-16","experiment","0","10","even","NA","11919","161759","NA","5606","295091","292080","293088","294090","NA","NA","295091","NA","NA","161761","9918","291069","292587","293589","294591","291044","292069","290965","291044","162761","New experiment","yes","1024"
"<opensesame_plugins.lsl_start.liblsl.LSL_session object at 0x000001A0CCF63C88>","1","black","[0.0, 0.0]","legacy","0","uniform","68","0","1","0","0","68","68","68","68","1","NA","68","NA","0","1","0","68","68","68","68","68","NA","68","68","1","Wed Nov 17 22:42:23 2021","-7.5","The main experiment item","yes","experiment.osexp","C:/Users/elus/Demant/+Team OMEXP - Article/ISAAR 2021/Data/experiments","no","mono","no","18","no","white","no","Next","1000","no","768","32","1","32","C:/Users/elus/Documents/RecordingLSL_maybefinal/subject-10.csv","5","[<opensesame_plugins.lsl_start.liblsl.LSL_session object at 0x000001A0CCF63C88>]","Kafkaesque Koffka","3.2.7","3","0","2","1024","2","48000","-16","experiment","0","10","even","NA","11919","161759","NA","5606","299221","296210","297218","298220","NA","NA","299221","NA","NA","161761","9918","295201","296717","297719","298721","295173","296201","295093","295173","162761","New experiment","yes","1024"
"<opensesame_plugins.lsl_start.liblsl.LSL_session object at 0x000001A0CCF63C88>","1","black","[0.0, 0.0]","legacy","0","uniform","69","0","1","0","0","69","69","69","69","1","NA","69","NA","0","1","0","69","69","69","69","69","NA","69","69","1","Wed Nov 17 22:42:23 2021","-7.5","The main experiment item","yes","experiment.osexp","C:/Users/elus/Demant/+Team OMEXP - Article/ISAAR 2021/Data/experiments","no","mono","no","18","no","white","no","Next","1000","no","768","33","1","33","C:/Users/elus/Documents/RecordingLSL_maybefinal/subject-10.csv","5","[<opensesame_plugins.lsl_start.liblsl.LSL_session object at 0x000001A0CCF63C88>]","Kafkaesque Koffka","3.2.7","1","0","2","1024","2","48000","-16","experiment","0","10","even","NA","11919","161759","NA","5606","303348","300339","301345","302347","NA","NA","303348","NA","NA","161761","9918","299329","300844","301846","302848","299303","300329","299225","299303","162761","New experiment","yes","1024"
"<opensesame_plugins.lsl_start.liblsl.LSL_session object at 0x000001A0CCF63C88>","1","black","[0.0, 0.0]","legacy","0","uniform","70","0","1","0","0","70","70","70","70","1","NA","70","NA","0","1","0","70","70","70","70","70","NA","70","70","1","Wed Nov 17 22:42:23 2021","-7.5","The main experiment item","yes","experiment.osexp","C:/Users/elus/Demant/+Team OMEXP - Article/ISAAR 2021/Data/experiments","no","mono","no","18","no","white","no","Next","1000","no","768","34","1","34","C:/Users/elus/Documents/RecordingLSL_maybefinal/subject-10.csv","5","[<opensesame_plugins.lsl_start.liblsl.LSL_session object at 0x000001A0CCF63C88>]","Kafkaesque Koffka","3.2.7","2","0","2","1024","2","48000","-16","experiment","0","10","even","NA","11919","161759","NA","5606","307467","304462","305464","306466","NA","NA","307467","NA","NA","161761","9918","303452","304963","305965","306967","303427","304453","303350","303427","162761","New experiment","yes","1024"
"<opensesame_plugins.lsl_start.liblsl.LSL_session object at 0x000001A0CCF63C88>","1","black","[0.0, 0.0]","legacy","0","uniform","71","0","1","0","0","71","71","71","71","1","NA","71","NA","0","1","0","71","71","71","71","71","NA","71","71","1","Wed Nov 17 22:42:23 2021","-8","The main experiment item","yes","experiment.osexp","C:/Users/elus/Demant/+Team OMEXP - Article/ISAAR 2021/Data/experiments","no","mono","no","18","no","white","no","Next","1000","no","768","35","1","35","C:/Users/elus/Documents/RecordingLSL_maybefinal/subject-10.csv","5","[<opensesame_plugins.lsl_start.liblsl.LSL_session object at 0x000001A0CCF63C88>]","Kafkaesque Koffka","3.2.7","3","0","2","1024","2","48000","-16","experiment","0","10","even","NA","11919","161759","NA","5606","311585","308580","309582","310584","NA","NA","311585","NA","NA","161761","9918","307572","309081","310083","311085","307546","308572","307469","307546","162761","New experiment","yes","1024"
"<opensesame_plugins.lsl_start.liblsl.LSL_session object at 0x000001A0CCF63C88>","1","black","[0.0, 0.0]","legacy","0","uniform","72","0","2","0","0","72","72","72","72","2","NA","72","NA","0","2","0","72","72","72","72","72","NA","72","72","2","Wed Nov 17 22:42:23 2021","-6","The main experiment item","yes","experiment.osexp","C:/Users/elus/Demant/+Team OMEXP - Article/ISAAR 2021/Data/experiments","no","mono","no","18","no","white","no","Next","400","no","768","0","2","0","C:/Users/elus/Documents/RecordingLSL_maybefinal/subject-10.csv","10","[<opensesame_plugins.lsl_start.liblsl.LSL_session object at 0x000001A0CCF63C88>]","Kafkaesque Koffka","3.2.7","1","0","2","1024","2","48000","-16","experiment","0","10","even","NA","11919","311676","NA","5606","316760","313750","314757","315759","NA","NA","316760","NA","NA","311677","9918","312740","314256","315258","316260","312720","313740","311587","312720","312677","New experiment","yes","1024"
"<opensesame_plugins.lsl_start.liblsl.LSL_session object at 0x000001A0CCF63C88>","1","black","[0.0, 0.0]","legacy","0","uniform","73","0","2","0","0","73","73","73","73","2","NA","73","NA","0","2","0","73","73","73","73","73","NA","73","73","2","Wed Nov 17 22:42:23 2021","-6","The main experiment item","yes","experiment.osexp","C:/Users/elus/Demant/+Team OMEXP - Article/ISAAR 2021/Data/experiments","no","mono","no","18","no","white","no","Next","400","no","768","1","2","1","C:/Users/elus/Documents/RecordingLSL_maybefinal/subject-10.csv","10","[<opensesame_plugins.lsl_start.liblsl.LSL_session object at 0x000001A0CCF63C88>]","Kafkaesque Koffka","3.2.7","2","0","2","1024","2","48000","-16","experiment","0","10","even","NA","11919","311676","NA","5606","320893","317881","318890","319892","NA","NA","320893","NA","NA","311677","9918","316868","318390","319391","320393","316841","317868","316762","316841","312677","New experiment","yes","1024"
"<opensesame_plugins.lsl_start.liblsl.LSL_session object at 0x000001A0CCF63C88>","1","black","[0.0, 0.0]","legacy","0","uniform","74","0","2","0","0","74","74","74","74","2","NA","74","NA","0","2","0","74","74","74","74","74","NA","74","74","2","Wed Nov 17 22:42:23 2021","-6","The main experiment item","yes","experiment.osexp","C:/Users/elus/Demant/+Team OMEXP - Article/ISAAR 2021/Data/experiments","no","mono","no","18","no","white","no","Next","400","no","768","2","2","2","C:/Users/elus/Documents/RecordingLSL_maybefinal/subject-10.csv","10","[<opensesame_plugins.lsl_start.liblsl.LSL_session object at 0x000001A0CCF63C88>]","Kafkaesque Koffka","3.2.7","3","0","2","1024","2","48000","-16","experiment","0","10","even","NA","11919","311676","NA","5606","325020","322012","323017","324019","NA","NA","325020","NA","NA","311677","9918","321003","322516","323518","324520","320974","322003","320895","320974","312677","New experiment","yes","1024"
"<opensesame_plugins.lsl_start.liblsl.LSL_session object at 0x000001A0CCF63C88>","1","black","[0.0, 0.0]","legacy","0","uniform","75","0","2","0","0","75","75","75","75","2","NA","75","NA","0","2","0","75","75","75","75","75","NA","75","75","2","Wed Nov 17 22:42:23 2021","-7","The main experiment item","yes","experiment.osexp","C:/Users/elus/Demant/+Team OMEXP - Article/ISAAR 2021/Data/experiments","no","mono","no","18","no","white","no","Next","400","no","768","3","2","3","C:/Users/elus/Documents/RecordingLSL_maybefinal/subject-10.csv","10","[<opensesame_plugins.lsl_start.liblsl.LSL_session object at 0x000001A0CCF63C88>]","Kafkaesque Koffka","3.2.7","1","0","2","1024","2","48000","-16","experiment","0","10","even","NA","11919","311676","NA","5606","329166","326161","327163","328165","NA","NA","329166","NA","NA","311677","9918","325147","326662","327664","328666","325116","326147","325022","325116","312677","New experiment","yes","1024"
"<opensesame_plugins.lsl_start.liblsl.LSL_session object at 0x000001A0CCF63C88>","0","black","[0.0, 0.0]","legacy","0","uniform","76","0","2","0","0","76","76","76","76","2","NA","76","NA","0","2","0","76","76","76","76","76","NA","76","76","2","Wed Nov 17 22:42:23 2021","-7","The main experiment item","yes","experiment.osexp","C:/Users/elus/Demant/+Team OMEXP - Article/ISAAR 2021/Data/experiments","no","mono","no","18","no","white","no","Next","400","no","768","4","2","4","C:/Users/elus/Documents/RecordingLSL_maybefinal/subject-10.csv","10","[<opensesame_plugins.lsl_start.liblsl.LSL_session object at 0x000001A0CCF63C88>]","Kafkaesque Koffka","3.2.7","2","0","2","1024","2","48000","-16","experiment","0","10","even","NA","11919","311676","NA","5606","333297","330291","331294","332296","NA","NA","333297","NA","NA","311677","9918","329275","330792","331795","332797","329246","330275","329168","329246","312677","New experiment","yes","1024"
"<opensesame_plugins.lsl_start.liblsl.LSL_session object at 0x000001A0CCF63C88>","1","black","[0.0, 0.0]","legacy","0","uniform","77","0","2","0","0","77","77","77","77","2","NA","77","NA","0","2","0","77","77","77","77","77","NA","77","77","2","Wed Nov 17 22:42:23 2021","-6.5","The main experiment item","yes","experiment.osexp","C:/Users/elus/Demant/+Team OMEXP - Article/ISAAR 2021/Data/experiments","no","mono","no","18","no","white","no","Next","400","no","768","5","2","5","C:/Users/elus/Documents/RecordingLSL_maybefinal/subject-10.csv","10","[<opensesame_plugins.lsl_start.liblsl.LSL_session object at 0x000001A0CCF63C88>]","Kafkaesque Koffka","3.2.7","3","0","2","1024","2","48000","-16","experiment","0","10","even","NA","11919","311676","NA","5606","337435","334430","335432","336434","NA","NA","337435","NA","NA","311677","9918","333416","334931","335933","336935","333388","334416","333299","333388","312677","New experiment","yes","1024"
"<opensesame_plugins.lsl_start.liblsl.LSL_session object at 0x000001A0CCF63C88>","1","black","[0.0, 0.0]","legacy","0","uniform","78","0","2","0","0","78","78","78","78","2","NA","78","NA","0","2","0","78","78","78","78","78","NA","78","78","2","Wed Nov 17 22:42:23 2021","-6.5","The main experiment item","yes","experiment.osexp","C:/Users/elus/Demant/+Team OMEXP - Article/ISAAR 2021/Data/experiments","no","mono","no","18","no","white","no","Next","400","no","768","6","2","6","C:/Users/elus/Documents/RecordingLSL_maybefinal/subject-10.csv","10","[<opensesame_plugins.lsl_start.liblsl.LSL_session object at 0x000001A0CCF63C88>]","Kafkaesque Koffka","3.2.7","1","0","2","1024","2","48000","-16","experiment","0","10","even","NA","11919","311676","NA","5606","341566","338561","339563","340565","NA","NA","341566","NA","NA","311677","9918","337543","339062","340064","341066","337515","338543","337437","337515","312677","New experiment","yes","1024"
"<opensesame_plugins.lsl_start.liblsl.LSL_session object at 0x000001A0CCF63C88>","1","black","[0.0, 0.0]","legacy","0","uniform","79","0","2","0","0","79","79","79","79","2","NA","79","NA","0","2","0","79","79","79","79","79","NA","79","79","2","Wed Nov 17 22:42:23 2021","-6.5","The main experiment item","yes","experiment.osexp","C:/Users/elus/Demant/+Team OMEXP - Article/ISAAR 2021/Data/experiments","no","mono","no","18","no","white","no","Next","400","no","768","7","2","7","C:/Users/elus/Documents/RecordingLSL_maybefinal/subject-10.csv","10","[<opensesame_plugins.lsl_start.liblsl.LSL_session object at 0x000001A0CCF63C88>]","Kafkaesque Koffka","3.2.7","2","0","2","1024","2","48000","-16","experiment","0","10","even","NA","11919","311676","NA","5606","345766","342762","343763","344765","NA","NA","345766","NA","NA","311677","9918","341747","343263","344264","345266","341727","342747","341651","341727","312677","New experiment","yes","1024"
"<opensesame_plugins.lsl_start.liblsl.LSL_session object at 0x000001A0CCF63C88>","1","black","[0.0, 0.0]","legacy","0","uniform","80","0","2","0","0","80","80","80","80","2","NA","80","NA","0","2","0","80","80","80","80","80","NA","80","80","2","Wed Nov 17 22:42:23 2021","-7","The main experiment item","yes","experiment.osexp","C:/Users/elus/Demant/+Team OMEXP - Article/ISAAR 2021/Data/experiments","no","mono","no","18","no","white","no","Next","400","no","768","8","2","8","C:/Users/elus/Documents/RecordingLSL_maybefinal/subject-10.csv","10","[<opensesame_plugins.lsl_start.liblsl.LSL_session object at 0x000001A0CCF63C88>]","Kafkaesque Koffka","3.2.7","3","0","2","1024","2","48000","-16","experiment","0","10","even","NA","11919","311676","NA","5606","349895","346890","347892","348894","NA","NA","349895","NA","NA","311677","9918","345877","347391","348393","349395","345847","346878","345770","345847","312677","New experiment","yes","1024"
"<opensesame_plugins.lsl_start.liblsl.LSL_session object at 0x000001A0CCF63C88>","1","black","[0.0, 0.0]","legacy","0","uniform","81","0","2","0","0","81","81","81","81","2","NA","81","NA","0","2","0","81","81","81","81","81","NA","81","81","2","Wed Nov 17 22:42:23 2021","-7","The main experiment item","yes","experiment.osexp","C:/Users/elus/Demant/+Team OMEXP - Article/ISAAR 2021/Data/experiments","no","mono","no","18","no","white","no","Next","400","no","768","9","2","9","C:/Users/elus/Documents/RecordingLSL_maybefinal/subject-10.csv","10","[<opensesame_plugins.lsl_start.liblsl.LSL_session object at 0x000001A0CCF63C88>]","Kafkaesque Koffka","3.2.7","1","0","2","1024","2","48000","-16","experiment","0","10","even","NA","11919","311676","NA","5606","354025","351020","352022","353024","NA","NA","354025","NA","NA","311677","9918","350003","351521","352523","353525","349977","351003","349897","349976","312677","New experiment","yes","1024"
"<opensesame_plugins.lsl_start.liblsl.LSL_session object at 0x000001A0CCF63C88>","0","black","[0.0, 0.0]","legacy","0","uniform","82","0","2","0","0","82","82","82","82","2","NA","82","NA","0","2","0","82","82","82","82","82","NA","82","82","2","Wed Nov 17 22:42:23 2021","-7","The main experiment item","yes","experiment.osexp","C:/Users/elus/Demant/+Team OMEXP - Article/ISAAR 2021/Data/experiments","no","mono","no","18","no","white","no","Next","400","no","768","10","2","10","C:/Users/elus/Documents/RecordingLSL_maybefinal/subject-10.csv","10","[<opensesame_plugins.lsl_start.liblsl.LSL_session object at 0x000001A0CCF63C88>]","Kafkaesque Koffka","3.2.7","2","0","2","1024","2","48000","-16","experiment","0","10","even","NA","11919","311676","NA","5606","358151","355142","356144","357146","NA","NA","358151","NA","NA","311677","9918","354133","355643","356645","357651","354107","355133","354027","354107","312677","New experiment","yes","1024"
"<opensesame_plugins.lsl_start.liblsl.LSL_session object at 0x000001A0CCF63C88>","1","black","[0.0, 0.0]","legacy","0","uniform","83","0","2","0","0","83","83","83","83","2","NA","83","NA","0","2","0","83","83","83","83","83","NA","83","83","2","Wed Nov 17 22:42:23 2021","-6.5","The main experiment item","yes","experiment.osexp","C:/Users/elus/Demant/+Team OMEXP - Article/ISAAR 2021/Data/experiments","no","mono","no","18","no","white","no","Next","400","no","768","11","2","11","C:/Users/elus/Documents/RecordingLSL_maybefinal/subject-10.csv","10","[<opensesame_plugins.lsl_start.liblsl.LSL_session object at 0x000001A0CCF63C88>]","Kafkaesque Koffka","3.2.7","3","0","2","1024","2","48000","-16","experiment","0","10","even","NA","11919","311676","NA","5606","362285","359270","360272","361280","NA","NA","362285","NA","NA","311677","9918","358260","359771","360779","361785","358233","359260","358153","358233","312677","New experiment","yes","1024"
"<opensesame_plugins.lsl_start.liblsl.LSL_session object at 0x000001A0CCF63C88>","1","black","[0.0, 0.0]","legacy","0","uniform","84","0","2","0","0","84","84","84","84","2","NA","84","NA","0","2","0","84","84","84","84","84","NA","84","84","2","Wed Nov 17 22:42:23 2021","-6.5","The main experiment item","yes","experiment.osexp","C:/Users/elus/Demant/+Team OMEXP - Article/ISAAR 2021/Data/experiments","no","mono","no","18","no","white","no","Next","400","no","768","12","2","12","C:/Users/elus/Documents/RecordingLSL_maybefinal/subject-10.csv","10","[<opensesame_plugins.lsl_start.liblsl.LSL_session object at 0x000001A0CCF63C88>]","Kafkaesque Koffka","3.2.7","1","0","2","1024","2","48000","-16","experiment","0","10","even","NA","11919","311676","NA","5606","366419","363410","364413","365415","NA","NA","366419","NA","NA","311677","9918","362393","363912","364914","365919","362366","363393","362290","362366","312677","New experiment","yes","1024"
"<opensesame_plugins.lsl_start.liblsl.LSL_session object at 0x000001A0CCF63C88>","1","black","[0.0, 0.0]","legacy","0","uniform","85","0","2","0","0","85","85","85","85","2","NA","85","NA","0","2","0","85","85","85","85","85","NA","85","85","2","Wed Nov 17 22:42:23 2021","-6.5","The main experiment item","yes","experiment.osexp","C:/Users/elus/Demant/+Team OMEXP - Article/ISAAR 2021/Data/experiments","no","mono","no","18","no","white","no","Next","400","no","768","13","2","13","C:/Users/elus/Documents/RecordingLSL_maybefinal/subject-10.csv","10","[<opensesame_plugins.lsl_start.liblsl.LSL_session object at 0x000001A0CCF63C88>]","Kafkaesque Koffka","3.2.7","2","0","2","1024","2","48000","-16","experiment","0","10","even","NA","11919","311676","NA","5606","370555","367541","368543","369550","NA","NA","370555","NA","NA","311677","9918","366527","368042","369049","370055","366499","367527","366421","366499","312677","New experiment","yes","1024"
"<opensesame_plugins.lsl_start.liblsl.LSL_session object at 0x000001A0CCF63C88>","1","black","[0.0, 0.0]","legacy","0","uniform","86","0","2","0","0","86","86","86","86","2","NA","86","NA","0","2","0","86","86","86","86","86","NA","86","86","2","Wed Nov 17 22:42:23 2021","-7","The main experiment item","yes","experiment.osexp","C:/Users/elus/Demant/+Team OMEXP - Article/ISAAR 2021/Data/experiments","no","mono","no","18","no","white","no","Next","400","no","768","14","2","14","C:/Users/elus/Documents/RecordingLSL_maybefinal/subject-10.csv","10","[<opensesame_plugins.lsl_start.liblsl.LSL_session object at 0x000001A0CCF63C88>]","Kafkaesque Koffka","3.2.7","3","0","2","1024","2","48000","-16","experiment","0","10","even","NA","11919","311676","NA","5606","374680","371670","372672","373674","NA","NA","374680","NA","NA","311677","9918","370662","372171","373173","374180","370635","371662","370557","370635","312677","New experiment","yes","1024"
"<opensesame_plugins.lsl_start.liblsl.LSL_session object at 0x000001A0CCF63C88>","0","black","[0.0, 0.0]","legacy","0","uniform","87","0","2","0","0","87","87","87","87","2","NA","87","NA","0","2","0","87","87","87","87","87","NA","87","87","2","Wed Nov 17 22:42:23 2021","-7","The main experiment item","yes","experiment.osexp","C:/Users/elus/Demant/+Team OMEXP - Article/ISAAR 2021/Data/experiments","no","mono","no","18","no","white","no","Next","400","no","768","15","2","15","C:/Users/elus/Documents/RecordingLSL_maybefinal/subject-10.csv","10","[<opensesame_plugins.lsl_start.liblsl.LSL_session object at 0x000001A0CCF63C88>]","Kafkaesque Koffka","3.2.7","1","0","2","1024","2","48000","-16","experiment","0","10","even","NA","11919","311676","NA","5606","378805","375799","376801","377804","NA","NA","378805","NA","NA","311677","9918","374788","376300","377303","378305","374760","375788","374682","374760","312677","New experiment","yes","1024"
"<opensesame_plugins.lsl_start.liblsl.LSL_session object at 0x000001A0CCF63C88>","1","black","[0.0, 0.0]","legacy","0","uniform","88","0","2","0","0","88","88","88","88","2","NA","88","NA","0","2","0","88","88","88","88","88","NA","88","88","2","Wed Nov 17 22:42:23 2021","-6.5","The main experiment item","yes","experiment.osexp","C:/Users/elus/Demant/+Team OMEXP - Article/ISAAR 2021/Data/experiments","no","mono","no","18","no","white","no","Next","400","no","768","16","2","16","C:/Users/elus/Documents/RecordingLSL_maybefinal/subject-10.csv","10","[<opensesame_plugins.lsl_start.liblsl.LSL_session object at 0x000001A0CCF63C88>]","Kafkaesque Koffka","3.2.7","2","0","2","1024","2","48000","-16","experiment","0","10","even","NA","11919","311676","NA","5606","382929","379921","380923","381928","NA","NA","382929","NA","NA","311677","9918","378912","380422","381427","382429","378885","379912","378807","378885","312677","New experiment","yes","1024"
"<opensesame_plugins.lsl_start.liblsl.LSL_session object at 0x000001A0CCF63C88>","1","black","[0.0, 0.0]","legacy","0","uniform","89","0","2","0","0","89","89","89","89","2","NA","89","NA","0","2","0","89","89","89","89","89","NA","89","89","2","Wed Nov 17 22:42:23 2021","-6.5","The main experiment item","yes","experiment.osexp","C:/Users/elus/Demant/+Team OMEXP - Article/ISAAR 2021/Data/experiments","no","mono","no","18","no","white","no","Next","400","no","768","17","2","17","C:/Users/elus/Documents/RecordingLSL_maybefinal/subject-10.csv","10","[<opensesame_plugins.lsl_start.liblsl.LSL_session object at 0x000001A0CCF63C88>]","Kafkaesque Koffka","3.2.7","3","0","2","1024","2","48000","-16","experiment","0","10","even","NA","11919","311676","NA","5606","387058","384051","385053","386057","NA","NA","387058","NA","NA","311677","9918","383037","384552","385556","386558","383009","384037","382931","383009","312677","New experiment","yes","1024"
"<opensesame_plugins.lsl_start.liblsl.LSL_session object at 0x000001A0CCF63C88>","1","black","[0.0, 0.0]","legacy","0","uniform","90","0","2","0","0","90","90","90","90","2","NA","90","NA","0","2","0","90","90","90","90","90","NA","90","90","2","Wed Nov 17 22:42:23 2021","-6.5","The main experiment item","yes","experiment.osexp","C:/Users/elus/Demant/+Team OMEXP - Article/ISAAR 2021/Data/experiments","no","mono","no","18","no","white","no","Next","400","no","768","18","2","18","C:/Users/elus/Documents/RecordingLSL_maybefinal/subject-10.csv","10","[<opensesame_plugins.lsl_start.liblsl.LSL_session object at 0x000001A0CCF63C88>]","Kafkaesque Koffka","3.2.7","1","0","2","1024","2","48000","-16","experiment","0","10","even","NA","11919","311676","NA","5606","391190","388181","389183","390189","NA","NA","391190","NA","NA","311677","9918","387166","388682","389687","390690","387139","388166","387060","387139","312677","New experiment","yes","1024"
"<opensesame_plugins.lsl_start.liblsl.LSL_session object at 0x000001A0CCF63C88>","1","black","[0.0, 0.0]","legacy","0","uniform","91","0","2","0","0","91","91","91","91","2","NA","91","NA","0","2","0","91","91","91","91","91","NA","91","91","2","Wed Nov 17 22:42:23 2021","-7","The main experiment item","yes","experiment.osexp","C:/Users/elus/Demant/+Team OMEXP - Article/ISAAR 2021/Data/experiments","no","mono","no","18","no","white","no","Next","400","no","768","19","2","19","C:/Users/elus/Documents/RecordingLSL_maybefinal/subject-10.csv","10","[<opensesame_plugins.lsl_start.liblsl.LSL_session object at 0x000001A0CCF63C88>]","Kafkaesque Koffka","3.2.7","2","0","2","1024","2","48000","-16","experiment","0","10","even","NA","11919","311676","NA","5606","395321","392311","393318","394320","NA","NA","395321","NA","NA","311677","9918","391299","392817","393819","394821","391272","392299","391192","391272","312677","New experiment","yes","1024"
"<opensesame_plugins.lsl_start.liblsl.LSL_session object at 0x000001A0CCF63C88>","1","black","[0.0, 0.0]","legacy","0","uniform","92","0","2","0","0","92","92","92","92","2","NA","92","NA","0","2","0","92","92","92","92","92","NA","92","92","2","Wed Nov 17 22:42:23 2021","-7","The main experiment item","yes","experiment.osexp","C:/Users/elus/Demant/+Team OMEXP - Article/ISAAR 2021/Data/experiments","no","mono","no","18","no","white","no","Next","400","no","768","20","2","20","C:/Users/elus/Documents/RecordingLSL_maybefinal/subject-10.csv","10","[<opensesame_plugins.lsl_start.liblsl.LSL_session object at 0x000001A0CCF63C88>]","Kafkaesque Koffka","3.2.7","3","0","2","1024","2","48000","-16","experiment","0","10","even","NA","11919","311676","NA","5606","399454","396440","397447","398453","NA","NA","399454","NA","NA","311677","9918","395431","396946","397952","398954","395403","396431","395325","395403","312677","New experiment","yes","1024"
"<opensesame_plugins.lsl_start.liblsl.LSL_session object at 0x000001A0CCF63C88>","1","black","[0.0, 0.0]","legacy","0","uniform","93","0","2","0","0","93","93","93","93","2","NA","93","NA","0","2","0","93","93","93","93","93","NA","93","93","2","Wed Nov 17 22:42:23 2021","-7","The main experiment item","yes","experiment.osexp","C:/Users/elus/Demant/+Team OMEXP - Article/ISAAR 2021/Data/experiments","no","mono","no","18","no","white","no","Next","400","no","768","21","2","21","C:/Users/elus/Documents/RecordingLSL_maybefinal/subject-10.csv","10","[<opensesame_plugins.lsl_start.liblsl.LSL_session object at 0x000001A0CCF63C88>]","Kafkaesque Koffka","3.2.7","1","0","2","1024","2","48000","-16","experiment","0","10","even","NA","11919","311676","NA","5606","403590","400580","401587","402589","NA","NA","403590","NA","NA","311677","9918","399572","401086","402088","403090","399544","400572","399465","399544","312677","New experiment","yes","1024"
"<opensesame_plugins.lsl_start.liblsl.LSL_session object at 0x000001A0CCF63C88>","0","black","[0.0, 0.0]","legacy","0","uniform","94","0","2","0","0","94","94","94","94","2","NA","94","NA","0","2","0","94","94","94","94","94","NA","94","94","2","Wed Nov 17 22:42:23 2021","-7.5","The main experiment item","yes","experiment.osexp","C:/Users/elus/Demant/+Team OMEXP - Article/ISAAR 2021/Data/experiments","no","mono","no","18","no","white","no","Next","400","no","768","22","2","22","C:/Users/elus/Documents/RecordingLSL_maybefinal/subject-10.csv","10","[<opensesame_plugins.lsl_start.liblsl.LSL_session object at 0x000001A0CCF63C88>]","Kafkaesque Koffka","3.2.7","2","0","2","1024","2","48000","-16","experiment","0","10","even","NA","11919","311676","NA","5606","407726","404721","405723","406725","NA","NA","407726","NA","NA","311677","9918","403706","405222","406224","407226","403679","404706","403594","403679","312677","New experiment","yes","1024"
"<opensesame_plugins.lsl_start.liblsl.LSL_session object at 0x000001A0CCF63C88>","1","black","[0.0, 0.0]","legacy","0","uniform","95","0","2","0","0","95","95","95","95","2","NA","95","NA","0","2","0","95","95","95","95","95","NA","95","95","2","Wed Nov 17 22:42:23 2021","-7","The main experiment item","yes","experiment.osexp","C:/Users/elus/Demant/+Team OMEXP - Article/ISAAR 2021/Data/experiments","no","mono","no","18","no","white","no","Next","400","no","768","23","2","23","C:/Users/elus/Documents/RecordingLSL_maybefinal/subject-10.csv","10","[<opensesame_plugins.lsl_start.liblsl.LSL_session object at 0x000001A0CCF63C88>]","Kafkaesque Koffka","3.2.7","3","0","2","1024","2","48000","-16","experiment","0","10","even","NA","11919","311676","NA","5606","411857","408852","409854","410856","NA","NA","411857","NA","NA","311677","9918","407839","409353","410355","411357","407811","408839","407732","407811","312677","New experiment","yes","1024"
"<opensesame_plugins.lsl_start.liblsl.LSL_session object at 0x000001A0CCF63C88>","1","black","[0.0, 0.0]","legacy","0","uniform","96","0","2","0","0","96","96","96","96","2","NA","96","NA","0","2","0","96","96","96","96","96","NA","96","96","2","Wed Nov 17 22:42:23 2021","-7","The main experiment item","yes","experiment.osexp","C:/Users/elus/Demant/+Team OMEXP - Article/ISAAR 2021/Data/experiments","no","mono","no","18","no","white","no","Next","400","no","768","24","2","24","C:/Users/elus/Documents/RecordingLSL_maybefinal/subject-10.csv","10","[<opensesame_plugins.lsl_start.liblsl.LSL_session object at 0x000001A0CCF63C88>]","Kafkaesque Koffka","3.2.7","1","0","2","1024","2","48000","-16","experiment","0","10","even","NA","11919","311676","NA","5606","415985","412980","413982","414984","NA","NA","415985","NA","NA","311677","9918","411968","413481","414483","415485","411941","412969","411863","411941","312677","New experiment","yes","1024"
"<opensesame_plugins.lsl_start.liblsl.LSL_session object at 0x000001A0CCF63C88>","1","black","[0.0, 0.0]","legacy","0","uniform","97","0","2","0","0","97","97","97","97","2","NA","97","NA","0","2","0","97","97","97","97","97","NA","97","97","2","Wed Nov 17 22:42:23 2021","-7","The main experiment item","yes","experiment.osexp","C:/Users/elus/Demant/+Team OMEXP - Article/ISAAR 2021/Data/experiments","no","mono","no","18","no","white","no","Next","400","no","768","25","2","25","C:/Users/elus/Documents/RecordingLSL_maybefinal/subject-10.csv","10","[<opensesame_plugins.lsl_start.liblsl.LSL_session object at 0x000001A0CCF63C88>]","Kafkaesque Koffka","3.2.7","2","0","2","1024","2","48000","-16","experiment","0","10","even","NA","11919","311676","NA","5606","420117","417102","418110","419116","NA","NA","420117","NA","NA","311677","9918","416094","417609","418614","419617","416067","417094","415987","416067","312677","New experiment","yes","1024"
"<opensesame_plugins.lsl_start.liblsl.LSL_session object at 0x000001A0CCF63C88>","1","black","[0.0, 0.0]","legacy","0","uniform","98","0","2","0","0","98","98","98","98","2","NA","98","NA","0","2","0","98","98","98","98","98","NA","98","98","2","Wed Nov 17 22:42:23 2021","-7.5","The main experiment item","yes","experiment.osexp","C:/Users/elus/Demant/+Team OMEXP - Article/ISAAR 2021/Data/experiments","no","mono","no","18","no","white","no","Next","400","no","768","26","2","26","C:/Users/elus/Documents/RecordingLSL_maybefinal/subject-10.csv","10","[<opensesame_plugins.lsl_start.liblsl.LSL_session object at 0x000001A0CCF63C88>]","Kafkaesque Koffka","3.2.7","3","0","2","1024","2","48000","-16","experiment","0","10","even","NA","11919","311676","NA","5606","424248","421240","422242","423247","NA","NA","424248","NA","NA","311677","9918","420226","421741","422746","423748","420198","421226","420119","420198","312677","New experiment","yes","1024"
"<opensesame_plugins.lsl_start.liblsl.LSL_session object at 0x000001A0CCF63C88>","1","black","[0.0, 0.0]","legacy","0","uniform","99","0","2","0","0","99","99","99","99","2","NA","99","NA","0","2","0","99","99","99","99","99","NA","99","99","2","Wed Nov 17 22:42:23 2021","-7.5","The main experiment item","yes","experiment.osexp","C:/Users/elus/Demant/+Team OMEXP - Article/ISAAR 2021/Data/experiments","no","mono","no","18","no","white","no","Next","400","no","768","27","2","27","C:/Users/elus/Documents/RecordingLSL_maybefinal/subject-10.csv","10","[<opensesame_plugins.lsl_start.liblsl.LSL_session object at 0x000001A0CCF63C88>]","Kafkaesque Koffka","3.2.7","1","0","2","1024","2","48000","-16","experiment","0","10","even","NA","11919","311676","NA","5606","428379","425371","426373","427378","NA","NA","428379","NA","NA","311677","9918","424354","425872","426877","427879","424327","425354","424250","424327","312677","New experiment","yes","1024"
"<opensesame_plugins.lsl_start.liblsl.LSL_session object at 0x000001A0CCF63C88>","1","black","[0.0, 0.0]","legacy","0","uniform","100","0","2","0","0","100","100","100","100","2","NA","100","NA","0","2","0","100","100","100","100","100","NA","100","100","2","Wed Nov 17 22:42:23 2021","-7.5","The main experiment item","yes","experiment.osexp","C:/Users/elus/Demant/+Team OMEXP - Article/ISAAR 2021/Data/experiments","no","mono","no","18","no","white","no","Next","400","no","768","28","2","28","C:/Users/elus/Documents/RecordingLSL_maybefinal/subject-10.csv","10","[<opensesame_plugins.lsl_start.liblsl.LSL_session object at 0x000001A0CCF63C88>]","Kafkaesque Koffka","3.2.7","2","0","2","1024","2","48000","-16","experiment","0","10","even","NA","11919","311676","NA","5606","432508","429500","430502","431507","NA","NA","432508","NA","NA","311677","9918","428489","430001","431006","432008","428460","429489","428381","428460","312677","New experiment","yes","1024"
"<opensesame_plugins.lsl_start.liblsl.LSL_session object at 0x000001A0CCF63C88>","1","black","[0.0, 0.0]","legacy","0","uniform","101","0","2","0","0","101","101","101","101","2","NA","101","NA","0","2","0","101","101","101","101","101","NA","101","101","2","Wed Nov 17 22:42:23 2021","-8","The main experiment item","yes","experiment.osexp","C:/Users/elus/Demant/+Team OMEXP - Article/ISAAR 2021/Data/experiments","no","mono","no","18","no","white","no","Next","400","no","768","29","2","29","C:/Users/elus/Documents/RecordingLSL_maybefinal/subject-10.csv","10","[<opensesame_plugins.lsl_start.liblsl.LSL_session object at 0x000001A0CCF63C88>]","Kafkaesque Koffka","3.2.7","3","0","2","1024","2","48000","-16","experiment","0","10","even","NA","11919","311676","NA","5606","436644","433630","434637","435643","NA","NA","436644","NA","NA","311677","9918","432618","434136","435142","436144","432591","433618","432512","432591","312677","New experiment","yes","1024"
"<opensesame_plugins.lsl_start.liblsl.LSL_session object at 0x000001A0CCF63C88>","1","black","[0.0, 0.0]","legacy","0","uniform","102","0","2","0","0","102","102","102","102","2","NA","102","NA","0","2","0","102","102","102","102","102","NA","102","102","2","Wed Nov 17 22:42:23 2021","-8","The main experiment item","yes","experiment.osexp","C:/Users/elus/Demant/+Team OMEXP - Article/ISAAR 2021/Data/experiments","no","mono","no","18","no","white","no","Next","400","no","768","30","2","30","C:/Users/elus/Documents/RecordingLSL_maybefinal/subject-10.csv","10","[<opensesame_plugins.lsl_start.liblsl.LSL_session object at 0x000001A0CCF63C88>]","Kafkaesque Koffka","3.2.7","1","0","2","1024","2","48000","-16","experiment","0","10","even","NA","11919","311676","NA","5606","440780","437760","438773","439779","NA","NA","440780","NA","NA","311677","9918","436749","438272","439278","440280","436724","437750","436647","436724","312677","New experiment","yes","1024"
