"LSL","answer","background","calibration","canvas_backend","compensation","coordinates","count_change","count_cond_loop","count_condition","count_end","count_experiment","count_generate_answer","count_neutral","count_neutral_2","count_neutral_3","count_new_adaptive_init","count_new_calibration_light","count_new_logger","count_new_lsl_start_1","count_new_lsl_stop","count_new_sketchpad","count_new_sketchpad_1","count_new_sketchpad_2","count_sig1","count_sig2","count_sig3","count_sound_generation","count_stimulus","count_tracking","count_trial","count_trial_loop","datetime","depth","description","disable_garbage_collection","experiment_file","experiment_path","font_bold","font_family","font_italic","font_size","font_underline","foreground","form_clicks","form_response","frequency","fullscreen","height","live_row","live_row_cond_loop","live_row_trial_loop","logfile","mod_freq","notifiers","opensesame_codename","opensesame_version","position","repeat_cycle","round_decimals","sound_buf_size","sound_channels","sound_freq","sound_sample_size","start","stop","subject_nr","subject_parity","time_change","time_cond_loop","time_condition","time_end","time_experiment","time_generate_answer","time_neutral","time_neutral_2","time_neutral_3","time_new_adaptive_init","time_new_calibration_light","time_new_logger","time_new_lsl_start_1","time_new_lsl_stop","time_new_sketchpad","time_new_sketchpad_1","time_new_sketchpad_2","time_sig1","time_sig2","time_sig3","time_sound_generation","time_stimulus","time_tracking","time_trial","time_trial_loop","title","uniform_coordinates","width"
"<opensesame_plugins.lsl_start.liblsl.LSL_session object at 0x000001EB5EF03CC0>","1","black","[0.0, 0.0]","legacy","0","uniform","0","0","0","0","0","0","0","0","0","0","NA","0","NA","0","0","0","0","0","0","0","0","NA","0","0","0","Wed Nov 17 21:57:28 2021","-6","The main experiment item","yes","experiment.osexp","C:/Users/elus/Demant/+Team OMEXP - Article/ISAAR 2021/Data/experiments","no","mono","no","18","no","white","no","Next","400","no","768","0","0","0","C:/Users/elus/Documents/RecordingLSL_maybefinal/subject-6.csv","5","[<opensesame_plugins.lsl_start.liblsl.LSL_session object at 0x000001EB5EF03CC0>]","Kafkaesque Koffka","3.2.7","1","0","2","1024","2","48000","-16","experiment","0","6","even","NA","11646","11692","NA","6153","16838","13829","14832","15835","NA","NA","16838","NA","NA","11696","9646","12817","14330","15333","16338","12766","13817","NA","12766","12696","New experiment","yes","1024"
"<opensesame_plugins.lsl_start.liblsl.LSL_session object at 0x000001EB5EF03CC0>","1","black","[0.0, 0.0]","legacy","0","uniform","1","0","0","0","0","1","1","1","1","0","NA","1","NA","0","0","0","1","1","1","1","1","NA","1","1","0","Wed Nov 17 21:57:28 2021","-6","The main experiment item","yes","experiment.osexp","C:/Users/elus/Demant/+Team OMEXP - Article/ISAAR 2021/Data/experiments","no","mono","no","18","no","white","no","Next","400","no","768","1","0","1","C:/Users/elus/Documents/RecordingLSL_maybefinal/subject-6.csv","5","[<opensesame_plugins.lsl_start.liblsl.LSL_session object at 0x000001EB5EF03CC0>]","Kafkaesque Koffka","3.2.7","2","0","2","1024","2","48000","-16","experiment","0","6","even","NA","11646","11692","NA","6153","21043","18037","19039","20041","NA","NA","21043","NA","NA","11696","9646","17019","18538","19540","20543","16983","18019","16849","16983","12696","New experiment","yes","1024"
"<opensesame_plugins.lsl_start.liblsl.LSL_session object at 0x000001EB5EF03CC0>","1","black","[0.0, 0.0]","legacy","0","uniform","2","0","0","0","0","2","2","2","2","0","NA","2","NA","0","0","0","2","2","2","2","2","NA","2","2","0","Wed Nov 17 21:57:28 2021","-6","The main experiment item","yes","experiment.osexp","C:/Users/elus/Demant/+Team OMEXP - Article/ISAAR 2021/Data/experiments","no","mono","no","18","no","white","no","Next","400","no","768","2","0","2","C:/Users/elus/Documents/RecordingLSL_maybefinal/subject-6.csv","5","[<opensesame_plugins.lsl_start.liblsl.LSL_session object at 0x000001EB5EF03CC0>]","Kafkaesque Koffka","3.2.7","3","0","2","1024","2","48000","-16","experiment","0","6","even","NA","11646","11692","NA","6153","25239","22233","23235","24238","NA","NA","25239","NA","NA","11696","9646","21210","22734","23736","24739","21175","22211","21046","21175","12696","New experiment","yes","1024"
"<opensesame_plugins.lsl_start.liblsl.LSL_session object at 0x000001EB5EF03CC0>","1","black","[0.0, 0.0]","legacy","0","uniform","3","0","0","0","0","3","3","3","3","0","NA","3","NA","0","0","0","3","3","3","3","3","NA","3","3","0","Wed Nov 17 21:57:28 2021","-7","The main experiment item","yes","experiment.osexp","C:/Users/elus/Demant/+Team OMEXP - Article/ISAAR 2021/Data/experiments","no","mono","no","18","no","white","no","Next","400","no","768","3","0","3","C:/Users/elus/Documents/RecordingLSL_maybefinal/subject-6.csv","5","[<opensesame_plugins.lsl_start.liblsl.LSL_session object at 0x000001EB5EF03CC0>]","Kafkaesque Koffka","3.2.7","1","0","2","1024","2","48000","-16","experiment","0","6","even","NA","11646","11692","NA","6153","29444","26435","27439","28441","NA","NA","29444","NA","NA","11696","9646","25417","26937","27940","28943","25378","26417","25242","25378","12696","New experiment","yes","1024"
"<opensesame_plugins.lsl_start.liblsl.LSL_session object at 0x000001EB5EF03CC0>","1","black","[0.0, 0.0]","legacy","0","uniform","4","0","0","0","0","4","4","4","4","0","NA","4","NA","0","0","0","4","4","4","4","4","NA","4","4","0","Wed Nov 17 21:57:28 2021","-7","The main experiment item","yes","experiment.osexp","C:/Users/elus/Demant/+Team OMEXP - Article/ISAAR 2021/Data/experiments","no","mono","no","18","no","white","no","Next","400","no","768","4","0","4","C:/Users/elus/Documents/RecordingLSL_maybefinal/subject-6.csv","5","[<opensesame_plugins.lsl_start.liblsl.LSL_session object at 0x000001EB5EF03CC0>]","Kafkaesque Koffka","3.2.7","2","0","2","1024","2","48000","-16","experiment","0","6","even","NA","11646","11692","NA","6153","33645","30630","31633","32638","NA","NA","33645","NA","NA","11696","9646","29613","31131","32136","33140","29573","30613","29447","29573","12696","New experiment","yes","1024"
"<opensesame_plugins.lsl_start.liblsl.LSL_session object at 0x000001EB5EF03CC0>","1","black","[0.0, 0.0]","legacy","0","uniform","5","0","0","0","0","5","5","5","5","0","NA","5","NA","0","0","0","5","5","5","5","5","NA","5","5","0","Wed Nov 17 21:57:28 2021","-7","The main experiment item","yes","experiment.osexp","C:/Users/elus/Demant/+Team OMEXP - Article/ISAAR 2021/Data/experiments","no","mono","no","18","no","white","no","Next","400","no","768","5","0","5","C:/Users/elus/Documents/RecordingLSL_maybefinal/subject-6.csv","5","[<opensesame_plugins.lsl_start.liblsl.LSL_session object at 0x000001EB5EF03CC0>]","Kafkaesque Koffka","3.2.7","3","0","2","1024","2","48000","-16","experiment","0","6","even","NA","11646","11692","NA","6153","37840","34836","35838","36840","NA","NA","37840","NA","NA","11696","9646","33814","35337","36339","37340","33780","34814","33649","33780","12696","New experiment","yes","1024"
"<opensesame_plugins.lsl_start.liblsl.LSL_session object at 0x000001EB5EF03CC0>","1","black","[0.0, 0.0]","legacy","0","uniform","6","0","0","0","0","6","6","6","6","0","NA","6","NA","0","0","0","6","6","6","6","6","NA","6","6","0","Wed Nov 17 21:57:28 2021","-8","The main experiment item","yes","experiment.osexp","C:/Users/elus/Demant/+Team OMEXP - Article/ISAAR 2021/Data/experiments","no","mono","no","18","no","white","no","Next","400","no","768","6","0","6","C:/Users/elus/Documents/RecordingLSL_maybefinal/subject-6.csv","5","[<opensesame_plugins.lsl_start.liblsl.LSL_session object at 0x000001EB5EF03CC0>]","Kafkaesque Koffka","3.2.7","1","0","2","1024","2","48000","-16","experiment","0","6","even","NA","11646","11692","NA","6153","42100","39093","40097","41099","NA","NA","42100","NA","NA","11696","9646","38066","39594","40598","41600","38015","39066","37843","38015","12696","New experiment","yes","1024"
"<opensesame_plugins.lsl_start.liblsl.LSL_session object at 0x000001EB5EF03CC0>","1","black","[0.0, 0.0]","legacy","0","uniform","7","0","0","0","0","7","7","7","7","0","NA","7","NA","0","0","0","7","7","7","7","7","NA","7","7","0","Wed Nov 17 21:57:28 2021","-8","The main experiment item","yes","experiment.osexp","C:/Users/elus/Demant/+Team OMEXP - Article/ISAAR 2021/Data/experiments","no","mono","no","18","no","white","no","Next","400","no","768","7","0","7","C:/Users/elus/Documents/RecordingLSL_maybefinal/subject-6.csv","5","[<opensesame_plugins.lsl_start.liblsl.LSL_session object at 0x000001EB5EF03CC0>]","Kafkaesque Koffka","3.2.7","2","0","2","1024","2","48000","-16","experiment","0","6","even","NA","11646","11692","NA","6153","46351","43340","44344","45348","NA","NA","46351","NA","NA","11696","9646","42287","43842","44846","45851","42228","43287","42102","42228","12696","New experiment","yes","1024"
"<opensesame_plugins.lsl_start.liblsl.LSL_session object at 0x000001EB5EF03CC0>","1","black","[0.0, 0.0]","legacy","0","uniform","8","0","0","0","0","8","8","8","8","0","NA","8","NA","0","0","0","8","8","8","8","8","NA","8","8","0","Wed Nov 17 21:57:28 2021","-8","The main experiment item","yes","experiment.osexp","C:/Users/elus/Demant/+Team OMEXP - Article/ISAAR 2021/Data/experiments","no","mono","no","18","no","white","no","Next","400","no","768","8","0","8","C:/Users/elus/Documents/RecordingLSL_maybefinal/subject-6.csv","5","[<opensesame_plugins.lsl_start.liblsl.LSL_session object at 0x000001EB5EF03CC0>]","Kafkaesque Koffka","3.2.7","3","0","2","1024","2","48000","-16","experiment","0","6","even","NA","11646","11692","NA","6153","50537","47528","48531","49535","NA","NA","50537","NA","NA","11696","9646","46507","48030","49033","50037","46479","47508","46354","46478","12696","New experiment","yes","1024"
"<opensesame_plugins.lsl_start.liblsl.LSL_session object at 0x000001EB5EF03CC0>","1","black","[0.0, 0.0]","legacy","0","uniform","9","0","0","0","0","9","9","9","9","0","NA","9","NA","0","0","0","9","9","9","9","9","NA","9","9","0","Wed Nov 17 21:57:28 2021","-9","The main experiment item","yes","experiment.osexp","C:/Users/elus/Demant/+Team OMEXP - Article/ISAAR 2021/Data/experiments","no","mono","no","18","no","white","no","Next","400","no","768","9","0","9","C:/Users/elus/Documents/RecordingLSL_maybefinal/subject-6.csv","5","[<opensesame_plugins.lsl_start.liblsl.LSL_session object at 0x000001EB5EF03CC0>]","Kafkaesque Koffka","3.2.7","1","0","2","1024","2","48000","-16","experiment","0","6","even","NA","11646","11692","NA","6153","54723","51717","52720","53722","NA","NA","54723","NA","NA","11696","9646","50698","52219","53221","54223","50671","51698","50540","50671","12696","New experiment","yes","1024"
"<opensesame_plugins.lsl_start.liblsl.LSL_session object at 0x000001EB5EF03CC0>","0","black","[0.0, 0.0]","legacy","0","uniform","10","0","0","0","0","10","10","10","10","0","NA","10","NA","0","0","0","10","10","10","10","10","NA","10","10","0","Wed Nov 17 21:57:28 2021","-9","The main experiment item","yes","experiment.osexp","C:/Users/elus/Demant/+Team OMEXP - Article/ISAAR 2021/Data/experiments","no","mono","no","18","no","white","no","Next","400","no","768","10","0","10","C:/Users/elus/Documents/RecordingLSL_maybefinal/subject-6.csv","5","[<opensesame_plugins.lsl_start.liblsl.LSL_session object at 0x000001EB5EF03CC0>]","Kafkaesque Koffka","3.2.7","2","0","2","1024","2","48000","-16","experiment","0","6","even","NA","11646","11692","NA","6153","58852","55847","56849","57851","NA","NA","58852","NA","NA","11696","9646","54836","56348","57350","58352","54809","55836","54731","54809","12696","New experiment","yes","1024"
"<opensesame_plugins.lsl_start.liblsl.LSL_session object at 0x000001EB5EF03CC0>","1","black","[0.0, 0.0]","legacy","0","uniform","11","0","0","0","0","11","11","11","11","0","NA","11","NA","0","0","0","11","11","11","11","11","NA","11","11","0","Wed Nov 17 21:57:28 2021","-8.5","The main experiment item","yes","experiment.osexp","C:/Users/elus/Demant/+Team OMEXP - Article/ISAAR 2021/Data/experiments","no","mono","no","18","no","white","no","Next","400","no","768","11","0","11","C:/Users/elus/Documents/RecordingLSL_maybefinal/subject-6.csv","5","[<opensesame_plugins.lsl_start.liblsl.LSL_session object at 0x000001EB5EF03CC0>]","Kafkaesque Koffka","3.2.7","3","0","2","1024","2","48000","-16","experiment","0","6","even","NA","11646","11692","NA","6153","62987","59983","60985","61987","NA","NA","62987","NA","NA","11696","9646","58974","60484","61486","62487","58942","59974","58854","58942","12696","New experiment","yes","1024"
"<opensesame_plugins.lsl_start.liblsl.LSL_session object at 0x000001EB5EF03CC0>","0","black","[0.0, 0.0]","legacy","0","uniform","12","0","0","0","0","12","12","12","12","0","NA","12","NA","0","0","0","12","12","12","12","12","NA","12","12","0","Wed Nov 17 21:57:28 2021","-8.5","The main experiment item","yes","experiment.osexp","C:/Users/elus/Demant/+Team OMEXP - Article/ISAAR 2021/Data/experiments","no","mono","no","18","no","white","no","Next","400","no","768","12","0","12","C:/Users/elus/Documents/RecordingLSL_maybefinal/subject-6.csv","5","[<opensesame_plugins.lsl_start.liblsl.LSL_session object at 0x000001EB5EF03CC0>]","Kafkaesque Koffka","3.2.7","1","0","2","1024","2","48000","-16","experiment","0","6","even","NA","11646","11692","NA","6153","67110","64104","65107","66109","NA","NA","67110","NA","NA","11696","9646","63094","64605","65608","66610","63067","64094","62989","63067","12696","New experiment","yes","1024"
"<opensesame_plugins.lsl_start.liblsl.LSL_session object at 0x000001EB5EF03CC0>","1","black","[0.0, 0.0]","legacy","0","uniform","13","0","0","0","0","13","13","13","13","0","NA","13","NA","0","0","0","13","13","13","13","13","NA","13","13","0","Wed Nov 17 21:57:28 2021","-8","The main experiment item","yes","experiment.osexp","C:/Users/elus/Demant/+Team OMEXP - Article/ISAAR 2021/Data/experiments","no","mono","no","18","no","white","no","Next","400","no","768","13","0","13","C:/Users/elus/Documents/RecordingLSL_maybefinal/subject-6.csv","5","[<opensesame_plugins.lsl_start.liblsl.LSL_session object at 0x000001EB5EF03CC0>]","Kafkaesque Koffka","3.2.7","2","0","2","1024","2","48000","-16","experiment","0","6","even","NA","11646","11692","NA","6153","71239","68234","69236","70238","NA","NA","71239","NA","NA","11696","9646","67219","68735","69737","70739","67189","68219","67112","67189","12696","New experiment","yes","1024"
"<opensesame_plugins.lsl_start.liblsl.LSL_session object at 0x000001EB5EF03CC0>","1","black","[0.0, 0.0]","legacy","0","uniform","14","0","0","0","0","14","14","14","14","0","NA","14","NA","0","0","0","14","14","14","14","14","NA","14","14","0","Wed Nov 17 21:57:28 2021","-8","The main experiment item","yes","experiment.osexp","C:/Users/elus/Demant/+Team OMEXP - Article/ISAAR 2021/Data/experiments","no","mono","no","18","no","white","no","Next","400","no","768","14","0","14","C:/Users/elus/Documents/RecordingLSL_maybefinal/subject-6.csv","5","[<opensesame_plugins.lsl_start.liblsl.LSL_session object at 0x000001EB5EF03CC0>]","Kafkaesque Koffka","3.2.7","3","0","2","1024","2","48000","-16","experiment","0","6","even","NA","11646","11692","NA","6153","75369","72364","73366","74368","NA","NA","75369","NA","NA","11696","9646","71353","72865","73867","74869","71321","72353","71242","71321","12696","New experiment","yes","1024"
"<opensesame_plugins.lsl_start.liblsl.LSL_session object at 0x000001EB5EF03CC0>","1","black","[0.0, 0.0]","legacy","0","uniform","15","0","0","0","0","15","15","15","15","0","NA","15","NA","0","0","0","15","15","15","15","15","NA","15","15","0","Wed Nov 17 21:57:28 2021","-8","The main experiment item","yes","experiment.osexp","C:/Users/elus/Demant/+Team OMEXP - Article/ISAAR 2021/Data/experiments","no","mono","no","18","no","white","no","Next","400","no","768","15","0","15","C:/Users/elus/Documents/RecordingLSL_maybefinal/subject-6.csv","5","[<opensesame_plugins.lsl_start.liblsl.LSL_session object at 0x000001EB5EF03CC0>]","Kafkaesque Koffka","3.2.7","1","0","2","1024","2","48000","-16","experiment","0","6","even","NA","11646","11692","NA","6153","79519","76514","77516","78518","NA","NA","79519","NA","NA","11696","9646","75504","77015","78017","79019","75476","76504","75377","75476","12696","New experiment","yes","1024"
"<opensesame_plugins.lsl_start.liblsl.LSL_session object at 0x000001EB5EF03CC0>","0","black","[0.0, 0.0]","legacy","0","uniform","16","0","0","0","0","16","16","16","16","0","NA","16","NA","0","0","0","16","16","16","16","16","NA","16","16","0","Wed Nov 17 21:57:28 2021","-8.5","The main experiment item","yes","experiment.osexp","C:/Users/elus/Demant/+Team OMEXP - Article/ISAAR 2021/Data/experiments","no","mono","no","18","no","white","no","Next","400","no","768","16","0","16","C:/Users/elus/Documents/RecordingLSL_maybefinal/subject-6.csv","5","[<opensesame_plugins.lsl_start.liblsl.LSL_session object at 0x000001EB5EF03CC0>]","Kafkaesque Koffka","3.2.7","2","0","2","1024","2","48000","-16","experiment","0","6","even","NA","11646","11692","NA","6153","83639","80634","81636","82638","NA","NA","83639","NA","NA","11696","9646","79626","81135","82137","83139","79600","80626","79521","79600","12696","New experiment","yes","1024"
"<opensesame_plugins.lsl_start.liblsl.LSL_session object at 0x000001EB5EF03CC0>","1","black","[0.0, 0.0]","legacy","0","uniform","17","0","0","0","0","17","17","17","17","0","NA","17","NA","0","0","0","17","17","17","17","17","NA","17","17","0","Wed Nov 17 21:57:28 2021","-8","The main experiment item","yes","experiment.osexp","C:/Users/elus/Demant/+Team OMEXP - Article/ISAAR 2021/Data/experiments","no","mono","no","18","no","white","no","Next","400","no","768","17","0","17","C:/Users/elus/Documents/RecordingLSL_maybefinal/subject-6.csv","5","[<opensesame_plugins.lsl_start.liblsl.LSL_session object at 0x000001EB5EF03CC0>]","Kafkaesque Koffka","3.2.7","3","0","2","1024","2","48000","-16","experiment","0","6","even","NA","11646","11692","NA","6153","87768","84763","85765","86767","NA","NA","87768","NA","NA","11696","9646","83747","85264","86266","87268","83719","84747","83643","83719","12696","New experiment","yes","1024"
"<opensesame_plugins.lsl_start.liblsl.LSL_session object at 0x000001EB5EF03CC0>","1","black","[0.0, 0.0]","legacy","0","uniform","18","0","0","0","0","18","18","18","18","0","NA","18","NA","0","0","0","18","18","18","18","18","NA","18","18","0","Wed Nov 17 21:57:28 2021","-8","The main experiment item","yes","experiment.osexp","C:/Users/elus/Demant/+Team OMEXP - Article/ISAAR 2021/Data/experiments","no","mono","no","18","no","white","no","Next","400","no","768","18","0","18","C:/Users/elus/Documents/RecordingLSL_maybefinal/subject-6.csv","5","[<opensesame_plugins.lsl_start.liblsl.LSL_session object at 0x000001EB5EF03CC0>]","Kafkaesque Koffka","3.2.7","1","0","2","1024","2","48000","-16","experiment","0","6","even","NA","11646","11692","NA","6153","91889","88884","89886","90888","NA","NA","91889","NA","NA","11696","9646","87876","89385","90387","91389","87848","88876","87770","87848","12696","New experiment","yes","1024"
"<opensesame_plugins.lsl_start.liblsl.LSL_session object at 0x000001EB5EF03CC0>","1","black","[0.0, 0.0]","legacy","0","uniform","19","0","0","0","0","19","19","19","19","0","NA","19","NA","0","0","0","19","19","19","19","19","NA","19","19","0","Wed Nov 17 21:57:28 2021","-8","The main experiment item","yes","experiment.osexp","C:/Users/elus/Demant/+Team OMEXP - Article/ISAAR 2021/Data/experiments","no","mono","no","18","no","white","no","Next","400","no","768","19","0","19","C:/Users/elus/Documents/RecordingLSL_maybefinal/subject-6.csv","5","[<opensesame_plugins.lsl_start.liblsl.LSL_session object at 0x000001EB5EF03CC0>]","Kafkaesque Koffka","3.2.7","2","0","2","1024","2","48000","-16","experiment","0","6","even","NA","11646","11692","NA","6153","96009","93004","94006","95008","NA","NA","96009","NA","NA","11696","9646","91995","93505","94507","95509","91968","92995","91891","91968","12696","New experiment","yes","1024"
"<opensesame_plugins.lsl_start.liblsl.LSL_session object at 0x000001EB5EF03CC0>","1","black","[0.0, 0.0]","legacy","0","uniform","20","0","0","0","0","20","20","20","20","0","NA","20","NA","0","0","0","20","20","20","20","20","NA","20","20","0","Wed Nov 17 21:57:28 2021","-8.5","The main experiment item","yes","experiment.osexp","C:/Users/elus/Demant/+Team OMEXP - Article/ISAAR 2021/Data/experiments","no","mono","no","18","no","white","no","Next","400","no","768","20","0","20","C:/Users/elus/Documents/RecordingLSL_maybefinal/subject-6.csv","5","[<opensesame_plugins.lsl_start.liblsl.LSL_session object at 0x000001EB5EF03CC0>]","Kafkaesque Koffka","3.2.7","3","0","2","1024","2","48000","-16","experiment","0","6","even","NA","11646","11692","NA","6153","100131","97126","98128","99130","NA","NA","100131","NA","NA","11696","9646","96117","97627","98629","99631","96090","97117","96011","96090","12696","New experiment","yes","1024"
"<opensesame_plugins.lsl_start.liblsl.LSL_session object at 0x000001EB5EF03CC0>","1","black","[0.0, 0.0]","legacy","0","uniform","21","0","0","0","0","21","21","21","21","0","NA","21","NA","0","0","0","21","21","21","21","21","NA","21","21","0","Wed Nov 17 21:57:28 2021","-8.5","The main experiment item","yes","experiment.osexp","C:/Users/elus/Demant/+Team OMEXP - Article/ISAAR 2021/Data/experiments","no","mono","no","18","no","white","no","Next","400","no","768","21","0","21","C:/Users/elus/Documents/RecordingLSL_maybefinal/subject-6.csv","5","[<opensesame_plugins.lsl_start.liblsl.LSL_session object at 0x000001EB5EF03CC0>]","Kafkaesque Koffka","3.2.7","1","0","2","1024","2","48000","-16","experiment","0","6","even","NA","11646","11692","NA","6153","104258","101253","102255","103257","NA","NA","104258","NA","NA","11696","9646","100237","101754","102756","103758","100212","101238","100133","100212","12696","New experiment","yes","1024"
"<opensesame_plugins.lsl_start.liblsl.LSL_session object at 0x000001EB5EF03CC0>","1","black","[0.0, 0.0]","legacy","0","uniform","22","0","0","0","0","22","22","22","22","0","NA","22","NA","0","0","0","22","22","22","22","22","NA","22","22","0","Wed Nov 17 21:57:28 2021","-8.5","The main experiment item","yes","experiment.osexp","C:/Users/elus/Demant/+Team OMEXP - Article/ISAAR 2021/Data/experiments","no","mono","no","18","no","white","no","Next","400","no","768","22","0","22","C:/Users/elus/Documents/RecordingLSL_maybefinal/subject-6.csv","5","[<opensesame_plugins.lsl_start.liblsl.LSL_session object at 0x000001EB5EF03CC0>]","Kafkaesque Koffka","3.2.7","2","0","2","1024","2","48000","-16","experiment","0","6","even","NA","11646","11692","NA","6153","108389","105384","106386","107388","NA","NA","108389","NA","NA","11696","9646","104368","105885","106887","107889","104341","105368","104263","104341","12696","New experiment","yes","1024"
"<opensesame_plugins.lsl_start.liblsl.LSL_session object at 0x000001EB5EF03CC0>","0","black","[0.0, 0.0]","legacy","0","uniform","23","0","0","0","0","23","23","23","23","0","NA","23","NA","0","0","0","23","23","23","23","23","NA","23","23","0","Wed Nov 17 21:57:28 2021","-9","The main experiment item","yes","experiment.osexp","C:/Users/elus/Demant/+Team OMEXP - Article/ISAAR 2021/Data/experiments","no","mono","no","18","no","white","no","Next","400","no","768","23","0","23","C:/Users/elus/Documents/RecordingLSL_maybefinal/subject-6.csv","5","[<opensesame_plugins.lsl_start.liblsl.LSL_session object at 0x000001EB5EF03CC0>]","Kafkaesque Koffka","3.2.7","3","0","2","1024","2","48000","-16","experiment","0","6","even","NA","11646","11692","NA","6153","112519","109513","110515","111518","NA","NA","112519","NA","NA","11696","9646","108499","110014","111017","112019","108471","109499","108391","108471","12696","New experiment","yes","1024"
"<opensesame_plugins.lsl_start.liblsl.LSL_session object at 0x000001EB5EF03CC0>","1","black","[0.0, 0.0]","legacy","0","uniform","24","0","0","0","0","24","24","24","24","0","NA","24","NA","0","0","0","24","24","24","24","24","NA","24","24","0","Wed Nov 17 21:57:28 2021","-8.5","The main experiment item","yes","experiment.osexp","C:/Users/elus/Demant/+Team OMEXP - Article/ISAAR 2021/Data/experiments","no","mono","no","18","no","white","no","Next","400","no","768","24","0","24","C:/Users/elus/Documents/RecordingLSL_maybefinal/subject-6.csv","5","[<opensesame_plugins.lsl_start.liblsl.LSL_session object at 0x000001EB5EF03CC0>]","Kafkaesque Koffka","3.2.7","1","0","2","1024","2","48000","-16","experiment","0","6","even","NA","11646","11692","NA","6153","116650","113644","114647","115649","NA","NA","116650","NA","NA","11696","9646","112634","114146","115148","116150","112603","113634","112521","112603","12696","New experiment","yes","1024"
"<opensesame_plugins.lsl_start.liblsl.LSL_session object at 0x000001EB5EF03CC0>","0","black","[0.0, 0.0]","legacy","0","uniform","25","0","0","0","0","25","25","25","25","0","NA","25","NA","0","0","0","25","25","25","25","25","NA","25","25","0","Wed Nov 17 21:57:28 2021","-8.5","The main experiment item","yes","experiment.osexp","C:/Users/elus/Demant/+Team OMEXP - Article/ISAAR 2021/Data/experiments","no","mono","no","18","no","white","no","Next","400","no","768","25","0","25","C:/Users/elus/Documents/RecordingLSL_maybefinal/subject-6.csv","5","[<opensesame_plugins.lsl_start.liblsl.LSL_session object at 0x000001EB5EF03CC0>]","Kafkaesque Koffka","3.2.7","2","0","2","1024","2","48000","-16","experiment","0","6","even","NA","11646","11692","NA","6153","120829","117824","118826","119828","NA","NA","120829","NA","NA","11696","9646","116809","118325","119327","120329","116790","117809","116707","116790","12696","New experiment","yes","1024"
"<opensesame_plugins.lsl_start.liblsl.LSL_session object at 0x000001EB5EF03CC0>","1","black","[0.0, 0.0]","legacy","0","uniform","26","0","0","0","0","26","26","26","26","0","NA","26","NA","0","0","0","26","26","26","26","26","NA","26","26","0","Wed Nov 17 21:57:28 2021","-8","The main experiment item","yes","experiment.osexp","C:/Users/elus/Demant/+Team OMEXP - Article/ISAAR 2021/Data/experiments","no","mono","no","18","no","white","no","Next","400","no","768","26","0","26","C:/Users/elus/Documents/RecordingLSL_maybefinal/subject-6.csv","5","[<opensesame_plugins.lsl_start.liblsl.LSL_session object at 0x000001EB5EF03CC0>]","Kafkaesque Koffka","3.2.7","3","0","2","1024","2","48000","-16","experiment","0","6","even","NA","11646","11692","NA","6153","124960","121955","122957","123959","NA","NA","124960","NA","NA","11696","9646","120943","122456","123458","124460","120916","121943","120831","120916","12696","New experiment","yes","1024"
"<opensesame_plugins.lsl_start.liblsl.LSL_session object at 0x000001EB5EF03CC0>","0","black","[0.0, 0.0]","legacy","0","uniform","27","0","0","0","0","27","27","27","27","0","NA","27","NA","0","0","0","27","27","27","27","27","NA","27","27","0","Wed Nov 17 21:57:28 2021","-8","The main experiment item","yes","experiment.osexp","C:/Users/elus/Demant/+Team OMEXP - Article/ISAAR 2021/Data/experiments","no","mono","no","18","no","white","no","Next","400","no","768","27","0","27","C:/Users/elus/Documents/RecordingLSL_maybefinal/subject-6.csv","5","[<opensesame_plugins.lsl_start.liblsl.LSL_session object at 0x000001EB5EF03CC0>]","Kafkaesque Koffka","3.2.7","1","0","2","1024","2","48000","-16","experiment","0","6","even","NA","11646","11692","NA","6153","129101","126084","127098","128100","NA","NA","129101","NA","NA","11696","9646","125067","126597","127599","128601","125041","126068","124962","125041","12696","New experiment","yes","1024"
"<opensesame_plugins.lsl_start.liblsl.LSL_session object at 0x000001EB5EF03CC0>","1","black","[0.0, 0.0]","legacy","0","uniform","28","0","0","0","0","28","28","28","28","0","NA","28","NA","0","0","0","28","28","28","28","28","NA","28","28","0","Wed Nov 17 21:57:28 2021","-7.5","The main experiment item","yes","experiment.osexp","C:/Users/elus/Demant/+Team OMEXP - Article/ISAAR 2021/Data/experiments","no","mono","no","18","no","white","no","Next","400","no","768","28","0","28","C:/Users/elus/Documents/RecordingLSL_maybefinal/subject-6.csv","5","[<opensesame_plugins.lsl_start.liblsl.LSL_session object at 0x000001EB5EF03CC0>]","Kafkaesque Koffka","3.2.7","2","0","2","1024","2","48000","-16","experiment","0","6","even","NA","11646","11692","NA","6153","133229","130224","131226","132228","NA","NA","133229","NA","NA","11696","9646","129212","130725","131727","132729","129181","130212","129103","129181","12696","New experiment","yes","1024"
"<opensesame_plugins.lsl_start.liblsl.LSL_session object at 0x000001EB5EF03CC0>","1","black","[0.0, 0.0]","legacy","0","uniform","29","0","0","0","0","29","29","29","29","0","NA","29","NA","0","0","0","29","29","29","29","29","NA","29","29","0","Wed Nov 17 21:57:28 2021","-7.5","The main experiment item","yes","experiment.osexp","C:/Users/elus/Demant/+Team OMEXP - Article/ISAAR 2021/Data/experiments","no","mono","no","18","no","white","no","Next","400","no","768","29","0","29","C:/Users/elus/Documents/RecordingLSL_maybefinal/subject-6.csv","5","[<opensesame_plugins.lsl_start.liblsl.LSL_session object at 0x000001EB5EF03CC0>]","Kafkaesque Koffka","3.2.7","3","0","2","1024","2","48000","-16","experiment","0","6","even","NA","11646","11692","NA","6153","137361","134354","135357","136360","NA","NA","137361","NA","NA","11696","9646","133339","134856","135858","136861","133311","134339","133235","133311","12696","New experiment","yes","1024"
"<opensesame_plugins.lsl_start.liblsl.LSL_session object at 0x000001EB5EF03CC0>","0","black","[0.0, 0.0]","legacy","0","uniform","30","0","0","0","0","30","30","30","30","0","NA","30","NA","0","0","0","30","30","30","30","30","NA","30","30","0","Wed Nov 17 21:57:28 2021","-7.5","The main experiment item","yes","experiment.osexp","C:/Users/elus/Demant/+Team OMEXP - Article/ISAAR 2021/Data/experiments","no","mono","no","18","no","white","no","Next","400","no","768","30","0","30","C:/Users/elus/Documents/RecordingLSL_maybefinal/subject-6.csv","5","[<opensesame_plugins.lsl_start.liblsl.LSL_session object at 0x000001EB5EF03CC0>]","Kafkaesque Koffka","3.2.7","1","0","2","1024","2","48000","-16","experiment","0","6","even","NA","11646","11692","NA","6153","141492","138484","139486","140491","NA","NA","141492","NA","NA","11696","9646","137469","138985","139990","140992","137442","138469","137363","137442","12696","New experiment","yes","1024"
"<opensesame_plugins.lsl_start.liblsl.LSL_session object at 0x000001EB5EF03CC0>","0","black","[0.0, 0.0]","legacy","0","uniform","31","0","0","0","0","31","31","31","31","0","NA","31","NA","0","0","0","31","31","31","31","31","NA","31","31","0","Wed Nov 17 21:57:28 2021","-7","The main experiment item","yes","experiment.osexp","C:/Users/elus/Demant/+Team OMEXP - Article/ISAAR 2021/Data/experiments","no","mono","no","18","no","white","no","Next","400","no","768","31","0","31","C:/Users/elus/Documents/RecordingLSL_maybefinal/subject-6.csv","5","[<opensesame_plugins.lsl_start.liblsl.LSL_session object at 0x000001EB5EF03CC0>]","Kafkaesque Koffka","3.2.7","2","0","2","1024","2","48000","-16","experiment","0","6","even","NA","11646","11692","NA","6153","145613","142604","143606","144612","NA","NA","145613","NA","NA","11696","9646","141596","143105","144111","145113","141570","142596","141494","141570","12696","New experiment","yes","1024"
"<opensesame_plugins.lsl_start.liblsl.LSL_session object at 0x000001EB5EF03CC0>","1","black","[0.0, 0.0]","legacy","0","uniform","32","0","0","0","0","32","32","32","32","0","NA","32","NA","0","0","0","32","32","32","32","32","NA","32","32","0","Wed Nov 17 21:57:28 2021","-6.5","The main experiment item","yes","experiment.osexp","C:/Users/elus/Demant/+Team OMEXP - Article/ISAAR 2021/Data/experiments","no","mono","no","18","no","white","no","Next","400","no","768","32","0","32","C:/Users/elus/Documents/RecordingLSL_maybefinal/subject-6.csv","5","[<opensesame_plugins.lsl_start.liblsl.LSL_session object at 0x000001EB5EF03CC0>]","Kafkaesque Koffka","3.2.7","3","0","2","1024","2","48000","-16","experiment","0","6","even","NA","11646","11692","NA","6153","149749","146744","147746","148748","NA","NA","149749","NA","NA","11696","9646","145728","147245","148247","149249","145697","146728","145618","145697","12696","New experiment","yes","1024"
"<opensesame_plugins.lsl_start.liblsl.LSL_session object at 0x000001EB5EF03CC0>","1","black","[0.0, 0.0]","legacy","0","uniform","33","0","0","0","0","33","33","33","33","0","NA","33","NA","0","0","0","33","33","33","33","33","NA","33","33","0","Wed Nov 17 21:57:28 2021","-6.5","The main experiment item","yes","experiment.osexp","C:/Users/elus/Demant/+Team OMEXP - Article/ISAAR 2021/Data/experiments","no","mono","no","18","no","white","no","Next","400","no","768","33","0","33","C:/Users/elus/Documents/RecordingLSL_maybefinal/subject-6.csv","5","[<opensesame_plugins.lsl_start.liblsl.LSL_session object at 0x000001EB5EF03CC0>]","Kafkaesque Koffka","3.2.7","1","0","2","1024","2","48000","-16","experiment","0","6","even","NA","11646","11692","NA","6153","153886","150875","151877","152885","NA","NA","153886","NA","NA","11696","9646","149859","151376","152384","153386","149830","150859","149751","149830","12696","New experiment","yes","1024"
"<opensesame_plugins.lsl_start.liblsl.LSL_session object at 0x000001EB5EF03CC0>","0","black","[0.0, 0.0]","legacy","0","uniform","34","0","0","0","0","34","34","34","34","0","NA","34","NA","0","0","0","34","34","34","34","34","NA","34","34","0","Wed Nov 17 21:57:28 2021","-6.5","The main experiment item","yes","experiment.osexp","C:/Users/elus/Demant/+Team OMEXP - Article/ISAAR 2021/Data/experiments","no","mono","no","18","no","white","no","Next","400","no","768","34","0","34","C:/Users/elus/Documents/RecordingLSL_maybefinal/subject-6.csv","5","[<opensesame_plugins.lsl_start.liblsl.LSL_session object at 0x000001EB5EF03CC0>]","Kafkaesque Koffka","3.2.7","2","0","2","1024","2","48000","-16","experiment","0","6","even","NA","11646","11692","NA","6153","158012","155006","156008","157010","NA","NA","158012","NA","NA","11696","9646","153997","155507","156509","157512","153969","154997","153890","153969","12696","New experiment","yes","1024"
"<opensesame_plugins.lsl_start.liblsl.LSL_session object at 0x000001EB5EF03CC0>","1","black","[0.0, 0.0]","legacy","0","uniform","35","0","0","0","0","35","35","35","35","0","NA","35","NA","0","0","0","35","35","35","35","35","NA","35","35","0","Wed Nov 17 21:57:28 2021","-6","The main experiment item","yes","experiment.osexp","C:/Users/elus/Demant/+Team OMEXP - Article/ISAAR 2021/Data/experiments","no","mono","no","18","no","white","no","Next","400","no","768","35","0","35","C:/Users/elus/Documents/RecordingLSL_maybefinal/subject-6.csv","5","[<opensesame_plugins.lsl_start.liblsl.LSL_session object at 0x000001EB5EF03CC0>]","Kafkaesque Koffka","3.2.7","3","0","2","1024","2","48000","-16","experiment","0","6","even","NA","11646","11692","NA","6153","162138","159133","160135","161137","NA","NA","162138","NA","NA","11696","9646","158121","159634","160636","161638","158094","159121","158014","158094","12696","New experiment","yes","1024"
"<opensesame_plugins.lsl_start.liblsl.LSL_session object at 0x000001EB5EF03CC0>","1","black","[0.0, 0.0]","legacy","0","uniform","36","0","1","0","0","36","36","36","36","1","NA","36","NA","0","1","0","36","36","36","36","36","NA","36","36","1","Wed Nov 17 21:57:28 2021","-6","The main experiment item","yes","experiment.osexp","C:/Users/elus/Demant/+Team OMEXP - Article/ISAAR 2021/Data/experiments","no","mono","no","18","no","white","no","Next","1000","no","768","0","1","0","C:/Users/elus/Documents/RecordingLSL_maybefinal/subject-6.csv","5","[<opensesame_plugins.lsl_start.liblsl.LSL_session object at 0x000001EB5EF03CC0>]","Kafkaesque Koffka","3.2.7","1","0","2","1024","2","48000","-16","experiment","0","6","even","NA","11646","162232","NA","6153","167311","164305","165307","166309","NA","NA","167311","NA","NA","162233","9646","163296","164806","165808","166810","163275","164296","162140","163275","163233","New experiment","yes","1024"
"<opensesame_plugins.lsl_start.liblsl.LSL_session object at 0x000001EB5EF03CC0>","1","black","[0.0, 0.0]","legacy","0","uniform","37","0","1","0","0","37","37","37","37","1","NA","37","NA","0","1","0","37","37","37","37","37","NA","37","37","1","Wed Nov 17 21:57:28 2021","-6","The main experiment item","yes","experiment.osexp","C:/Users/elus/Demant/+Team OMEXP - Article/ISAAR 2021/Data/experiments","no","mono","no","18","no","white","no","Next","1000","no","768","1","1","1","C:/Users/elus/Documents/RecordingLSL_maybefinal/subject-6.csv","5","[<opensesame_plugins.lsl_start.liblsl.LSL_session object at 0x000001EB5EF03CC0>]","Kafkaesque Koffka","3.2.7","2","0","2","1024","2","48000","-16","experiment","0","6","even","NA","11646","162232","NA","6153","171439","168434","169436","170438","NA","NA","171439","NA","NA","162233","9646","167418","168935","169937","170939","167392","168418","167313","167391","163233","New experiment","yes","1024"
"<opensesame_plugins.lsl_start.liblsl.LSL_session object at 0x000001EB5EF03CC0>","1","black","[0.0, 0.0]","legacy","0","uniform","38","0","1","0","0","38","38","38","38","1","NA","38","NA","0","1","0","38","38","38","38","38","NA","38","38","1","Wed Nov 17 21:57:28 2021","-6","The main experiment item","yes","experiment.osexp","C:/Users/elus/Demant/+Team OMEXP - Article/ISAAR 2021/Data/experiments","no","mono","no","18","no","white","no","Next","1000","no","768","2","1","2","C:/Users/elus/Documents/RecordingLSL_maybefinal/subject-6.csv","5","[<opensesame_plugins.lsl_start.liblsl.LSL_session object at 0x000001EB5EF03CC0>]","Kafkaesque Koffka","3.2.7","3","0","2","1024","2","48000","-16","experiment","0","6","even","NA","11646","162232","NA","6153","175569","172564","173566","174568","NA","NA","175569","NA","NA","162233","9646","171551","173065","174067","175069","171521","172551","171441","171521","163233","New experiment","yes","1024"
"<opensesame_plugins.lsl_start.liblsl.LSL_session object at 0x000001EB5EF03CC0>","1","black","[0.0, 0.0]","legacy","0","uniform","39","0","1","0","0","39","39","39","39","1","NA","39","NA","0","1","0","39","39","39","39","39","NA","39","39","1","Wed Nov 17 21:57:28 2021","-7","The main experiment item","yes","experiment.osexp","C:/Users/elus/Demant/+Team OMEXP - Article/ISAAR 2021/Data/experiments","no","mono","no","18","no","white","no","Next","1000","no","768","3","1","3","C:/Users/elus/Documents/RecordingLSL_maybefinal/subject-6.csv","5","[<opensesame_plugins.lsl_start.liblsl.LSL_session object at 0x000001EB5EF03CC0>]","Kafkaesque Koffka","3.2.7","1","0","2","1024","2","48000","-16","experiment","0","6","even","NA","11646","162232","NA","6153","179711","176705","177708","178710","NA","NA","179711","NA","NA","162233","9646","175690","177206","178209","179211","175662","176690","175571","175662","163233","New experiment","yes","1024"
"<opensesame_plugins.lsl_start.liblsl.LSL_session object at 0x000001EB5EF03CC0>","1","black","[0.0, 0.0]","legacy","0","uniform","40","0","1","0","0","40","40","40","40","1","NA","40","NA","0","1","0","40","40","40","40","40","NA","40","40","1","Wed Nov 17 21:57:28 2021","-7","The main experiment item","yes","experiment.osexp","C:/Users/elus/Demant/+Team OMEXP - Article/ISAAR 2021/Data/experiments","no","mono","no","18","no","white","no","Next","1000","no","768","4","1","4","C:/Users/elus/Documents/RecordingLSL_maybefinal/subject-6.csv","5","[<opensesame_plugins.lsl_start.liblsl.LSL_session object at 0x000001EB5EF03CC0>]","Kafkaesque Koffka","3.2.7","2","0","2","1024","2","48000","-16","experiment","0","6","even","NA","11646","162232","NA","6153","183831","180826","181828","182830","NA","NA","183831","NA","NA","162233","9646","179817","181327","182329","183331","179790","180817","179713","179790","163233","New experiment","yes","1024"
"<opensesame_plugins.lsl_start.liblsl.LSL_session object at 0x000001EB5EF03CC0>","1","black","[0.0, 0.0]","legacy","0","uniform","41","0","1","0","0","41","41","41","41","1","NA","41","NA","0","1","0","41","41","41","41","41","NA","41","41","1","Wed Nov 17 21:57:28 2021","-7","The main experiment item","yes","experiment.osexp","C:/Users/elus/Demant/+Team OMEXP - Article/ISAAR 2021/Data/experiments","no","mono","no","18","no","white","no","Next","1000","no","768","5","1","5","C:/Users/elus/Documents/RecordingLSL_maybefinal/subject-6.csv","5","[<opensesame_plugins.lsl_start.liblsl.LSL_session object at 0x000001EB5EF03CC0>]","Kafkaesque Koffka","3.2.7","3","0","2","1024","2","48000","-16","experiment","0","6","even","NA","11646","162232","NA","6153","187959","184954","185956","186958","NA","NA","187959","NA","NA","162233","9646","183941","185455","186457","187459","183913","184941","183833","183913","163233","New experiment","yes","1024"
"<opensesame_plugins.lsl_start.liblsl.LSL_session object at 0x000001EB5EF03CC0>","1","black","[0.0, 0.0]","legacy","0","uniform","42","0","1","0","0","42","42","42","42","1","NA","42","NA","0","1","0","42","42","42","42","42","NA","42","42","1","Wed Nov 17 21:57:28 2021","-8","The main experiment item","yes","experiment.osexp","C:/Users/elus/Demant/+Team OMEXP - Article/ISAAR 2021/Data/experiments","no","mono","no","18","no","white","no","Next","1000","no","768","6","1","6","C:/Users/elus/Documents/RecordingLSL_maybefinal/subject-6.csv","5","[<opensesame_plugins.lsl_start.liblsl.LSL_session object at 0x000001EB5EF03CC0>]","Kafkaesque Koffka","3.2.7","1","0","2","1024","2","48000","-16","experiment","0","6","even","NA","11646","162232","NA","6153","192099","189094","190096","191098","NA","NA","192099","NA","NA","162233","9646","188078","189595","190597","191599","188050","189078","187961","188050","163233","New experiment","yes","1024"
"<opensesame_plugins.lsl_start.liblsl.LSL_session object at 0x000001EB5EF03CC0>","1","black","[0.0, 0.0]","legacy","0","uniform","43","0","1","0","0","43","43","43","43","1","NA","43","NA","0","1","0","43","43","43","43","43","NA","43","43","1","Wed Nov 17 21:57:28 2021","-8","The main experiment item","yes","experiment.osexp","C:/Users/elus/Demant/+Team OMEXP - Article/ISAAR 2021/Data/experiments","no","mono","no","18","no","white","no","Next","1000","no","768","7","1","7","C:/Users/elus/Documents/RecordingLSL_maybefinal/subject-6.csv","5","[<opensesame_plugins.lsl_start.liblsl.LSL_session object at 0x000001EB5EF03CC0>]","Kafkaesque Koffka","3.2.7","2","0","2","1024","2","48000","-16","experiment","0","6","even","NA","11646","162232","NA","6153","196230","193225","194227","195229","NA","NA","196230","NA","NA","162233","9646","192209","193726","194728","195730","192182","193209","192106","192182","163233","New experiment","yes","1024"
"<opensesame_plugins.lsl_start.liblsl.LSL_session object at 0x000001EB5EF03CC0>","1","black","[0.0, 0.0]","legacy","0","uniform","44","0","1","0","0","44","44","44","44","1","NA","44","NA","0","1","0","44","44","44","44","44","NA","44","44","1","Wed Nov 17 21:57:28 2021","-8","The main experiment item","yes","experiment.osexp","C:/Users/elus/Demant/+Team OMEXP - Article/ISAAR 2021/Data/experiments","no","mono","no","18","no","white","no","Next","1000","no","768","8","1","8","C:/Users/elus/Documents/RecordingLSL_maybefinal/subject-6.csv","5","[<opensesame_plugins.lsl_start.liblsl.LSL_session object at 0x000001EB5EF03CC0>]","Kafkaesque Koffka","3.2.7","3","0","2","1024","2","48000","-16","experiment","0","6","even","NA","11646","162232","NA","6153","200359","197354","198356","199358","NA","NA","200359","NA","NA","162233","9646","196336","197855","198857","199859","196309","197336","196232","196309","163233","New experiment","yes","1024"
"<opensesame_plugins.lsl_start.liblsl.LSL_session object at 0x000001EB5EF03CC0>","1","black","[0.0, 0.0]","legacy","0","uniform","45","0","1","0","0","45","45","45","45","1","NA","45","NA","0","1","0","45","45","45","45","45","NA","45","45","1","Wed Nov 17 21:57:28 2021","-9","The main experiment item","yes","experiment.osexp","C:/Users/elus/Demant/+Team OMEXP - Article/ISAAR 2021/Data/experiments","no","mono","no","18","no","white","no","Next","1000","no","768","9","1","9","C:/Users/elus/Documents/RecordingLSL_maybefinal/subject-6.csv","5","[<opensesame_plugins.lsl_start.liblsl.LSL_session object at 0x000001EB5EF03CC0>]","Kafkaesque Koffka","3.2.7","1","0","2","1024","2","48000","-16","experiment","0","6","even","NA","11646","162232","NA","6153","204490","201485","202487","203489","NA","NA","204490","NA","NA","162233","9646","200476","201986","202988","203990","200447","201476","200360","200447","163233","New experiment","yes","1024"
"<opensesame_plugins.lsl_start.liblsl.LSL_session object at 0x000001EB5EF03CC0>","1","black","[0.0, 0.0]","legacy","0","uniform","46","0","1","0","0","46","46","46","46","1","NA","46","NA","0","1","0","46","46","46","46","46","NA","46","46","1","Wed Nov 17 21:57:28 2021","-9","The main experiment item","yes","experiment.osexp","C:/Users/elus/Demant/+Team OMEXP - Article/ISAAR 2021/Data/experiments","no","mono","no","18","no","white","no","Next","1000","no","768","10","1","10","C:/Users/elus/Documents/RecordingLSL_maybefinal/subject-6.csv","5","[<opensesame_plugins.lsl_start.liblsl.LSL_session object at 0x000001EB5EF03CC0>]","Kafkaesque Koffka","3.2.7","2","0","2","1024","2","48000","-16","experiment","0","6","even","NA","11646","162232","NA","6153","208620","205615","206617","207619","NA","NA","208620","NA","NA","162233","9646","204598","206116","207118","208120","204572","205598","204493","204572","163233","New experiment","yes","1024"
"<opensesame_plugins.lsl_start.liblsl.LSL_session object at 0x000001EB5EF03CC0>","1","black","[0.0, 0.0]","legacy","0","uniform","47","0","1","0","0","47","47","47","47","1","NA","47","NA","0","1","0","47","47","47","47","47","NA","47","47","1","Wed Nov 17 21:57:28 2021","-9","The main experiment item","yes","experiment.osexp","C:/Users/elus/Demant/+Team OMEXP - Article/ISAAR 2021/Data/experiments","no","mono","no","18","no","white","no","Next","1000","no","768","11","1","11","C:/Users/elus/Documents/RecordingLSL_maybefinal/subject-6.csv","5","[<opensesame_plugins.lsl_start.liblsl.LSL_session object at 0x000001EB5EF03CC0>]","Kafkaesque Koffka","3.2.7","3","0","2","1024","2","48000","-16","experiment","0","6","even","NA","11646","162232","NA","6153","212739","209734","210736","211738","NA","NA","212739","NA","NA","162233","9646","208726","210235","211237","212239","208699","209726","208622","208699","163233","New experiment","yes","1024"
"<opensesame_plugins.lsl_start.liblsl.LSL_session object at 0x000001EB5EF03CC0>","0","black","[0.0, 0.0]","legacy","0","uniform","48","0","1","0","0","48","48","48","48","1","NA","48","NA","0","1","0","48","48","48","48","48","NA","48","48","1","Wed Nov 17 21:57:28 2021","-10","The main experiment item","yes","experiment.osexp","C:/Users/elus/Demant/+Team OMEXP - Article/ISAAR 2021/Data/experiments","no","mono","no","18","no","white","no","Next","1000","no","768","12","1","12","C:/Users/elus/Documents/RecordingLSL_maybefinal/subject-6.csv","5","[<opensesame_plugins.lsl_start.liblsl.LSL_session object at 0x000001EB5EF03CC0>]","Kafkaesque Koffka","3.2.7","1","0","2","1024","2","48000","-16","experiment","0","6","even","NA","11646","162232","NA","6153","216880","213875","214877","215879","NA","NA","216880","NA","NA","162233","9646","212858","214376","215378","216380","212828","213858","212741","212827","163233","New experiment","yes","1024"
"<opensesame_plugins.lsl_start.liblsl.LSL_session object at 0x000001EB5EF03CC0>","0","black","[0.0, 0.0]","legacy","0","uniform","49","0","1","0","0","49","49","49","49","1","NA","49","NA","0","1","0","49","49","49","49","49","NA","49","49","1","Wed Nov 17 21:57:28 2021","-9.5","The main experiment item","yes","experiment.osexp","C:/Users/elus/Demant/+Team OMEXP - Article/ISAAR 2021/Data/experiments","no","mono","no","18","no","white","no","Next","1000","no","768","13","1","13","C:/Users/elus/Documents/RecordingLSL_maybefinal/subject-6.csv","5","[<opensesame_plugins.lsl_start.liblsl.LSL_session object at 0x000001EB5EF03CC0>]","Kafkaesque Koffka","3.2.7","2","0","2","1024","2","48000","-16","experiment","0","6","even","NA","11646","162232","NA","6153","221019","218014","219016","220018","NA","NA","221019","NA","NA","162233","9646","217000","218515","219517","220519","216972","218001","216882","216972","163233","New experiment","yes","1024"
"<opensesame_plugins.lsl_start.liblsl.LSL_session object at 0x000001EB5EF03CC0>","1","black","[0.0, 0.0]","legacy","0","uniform","50","0","1","0","0","50","50","50","50","1","NA","50","NA","0","1","0","50","50","50","50","50","NA","50","50","1","Wed Nov 17 21:57:28 2021","-9","The main experiment item","yes","experiment.osexp","C:/Users/elus/Demant/+Team OMEXP - Article/ISAAR 2021/Data/experiments","no","mono","no","18","no","white","no","Next","1000","no","768","14","1","14","C:/Users/elus/Documents/RecordingLSL_maybefinal/subject-6.csv","5","[<opensesame_plugins.lsl_start.liblsl.LSL_session object at 0x000001EB5EF03CC0>]","Kafkaesque Koffka","3.2.7","3","0","2","1024","2","48000","-16","experiment","0","6","even","NA","11646","162232","NA","6153","225141","222136","223138","224140","NA","NA","225141","NA","NA","162233","9646","221127","222637","223639","224641","221099","222127","221021","221099","163233","New experiment","yes","1024"
"<opensesame_plugins.lsl_start.liblsl.LSL_session object at 0x000001EB5EF03CC0>","0","black","[0.0, 0.0]","legacy","0","uniform","51","0","1","0","0","51","51","51","51","1","NA","51","NA","0","1","0","51","51","51","51","51","NA","51","51","1","Wed Nov 17 21:57:28 2021","-9","The main experiment item","yes","experiment.osexp","C:/Users/elus/Demant/+Team OMEXP - Article/ISAAR 2021/Data/experiments","no","mono","no","18","no","white","no","Next","1000","no","768","15","1","15","C:/Users/elus/Documents/RecordingLSL_maybefinal/subject-6.csv","5","[<opensesame_plugins.lsl_start.liblsl.LSL_session object at 0x000001EB5EF03CC0>]","Kafkaesque Koffka","3.2.7","1","0","2","1024","2","48000","-16","experiment","0","6","even","NA","11646","162232","NA","6153","229259","226254","227256","228258","NA","NA","229259","NA","NA","162233","9646","225245","226755","227757","228759","225219","226245","225143","225219","163233","New experiment","yes","1024"
"<opensesame_plugins.lsl_start.liblsl.LSL_session object at 0x000001EB5EF03CC0>","1","black","[0.0, 0.0]","legacy","0","uniform","52","0","1","0","0","52","52","52","52","1","NA","52","NA","0","1","0","52","52","52","52","52","NA","52","52","1","Wed Nov 17 21:57:28 2021","-8.5","The main experiment item","yes","experiment.osexp","C:/Users/elus/Demant/+Team OMEXP - Article/ISAAR 2021/Data/experiments","no","mono","no","18","no","white","no","Next","1000","no","768","16","1","16","C:/Users/elus/Documents/RecordingLSL_maybefinal/subject-6.csv","5","[<opensesame_plugins.lsl_start.liblsl.LSL_session object at 0x000001EB5EF03CC0>]","Kafkaesque Koffka","3.2.7","2","0","2","1024","2","48000","-16","experiment","0","6","even","NA","11646","162232","NA","6153","233390","230384","231386","232389","NA","NA","233390","NA","NA","162233","9646","229368","230886","231888","232890","229341","230368","229263","229341","163233","New experiment","yes","1024"
"<opensesame_plugins.lsl_start.liblsl.LSL_session object at 0x000001EB5EF03CC0>","1","black","[0.0, 0.0]","legacy","0","uniform","53","0","1","0","0","53","53","53","53","1","NA","53","NA","0","1","0","53","53","53","53","53","NA","53","53","1","Wed Nov 17 21:57:28 2021","-8.5","The main experiment item","yes","experiment.osexp","C:/Users/elus/Demant/+Team OMEXP - Article/ISAAR 2021/Data/experiments","no","mono","no","18","no","white","no","Next","1000","no","768","17","1","17","C:/Users/elus/Documents/RecordingLSL_maybefinal/subject-6.csv","5","[<opensesame_plugins.lsl_start.liblsl.LSL_session object at 0x000001EB5EF03CC0>]","Kafkaesque Koffka","3.2.7","3","0","2","1024","2","48000","-16","experiment","0","6","even","NA","11646","162232","NA","6153","237520","234515","235517","236519","NA","NA","237520","NA","NA","162233","9646","233503","235016","236018","237020","233474","234503","233394","233474","163233","New experiment","yes","1024"
"<opensesame_plugins.lsl_start.liblsl.LSL_session object at 0x000001EB5EF03CC0>","1","black","[0.0, 0.0]","legacy","0","uniform","54","0","1","0","0","54","54","54","54","1","NA","54","NA","0","1","0","54","54","54","54","54","NA","54","54","1","Wed Nov 17 21:57:28 2021","-8.5","The main experiment item","yes","experiment.osexp","C:/Users/elus/Demant/+Team OMEXP - Article/ISAAR 2021/Data/experiments","no","mono","no","18","no","white","no","Next","1000","no","768","18","1","18","C:/Users/elus/Documents/RecordingLSL_maybefinal/subject-6.csv","5","[<opensesame_plugins.lsl_start.liblsl.LSL_session object at 0x000001EB5EF03CC0>]","Kafkaesque Koffka","3.2.7","1","0","2","1024","2","48000","-16","experiment","0","6","even","NA","11646","162232","NA","6153","241639","238634","239636","240638","NA","NA","241639","NA","NA","162233","9646","237624","239135","240137","241139","237598","238624","237522","237598","163233","New experiment","yes","1024"
"<opensesame_plugins.lsl_start.liblsl.LSL_session object at 0x000001EB5EF03CC0>","0","black","[0.0, 0.0]","legacy","0","uniform","55","0","1","0","0","55","55","55","55","1","NA","55","NA","0","1","0","55","55","55","55","55","NA","55","55","1","Wed Nov 17 21:57:28 2021","-9","The main experiment item","yes","experiment.osexp","C:/Users/elus/Demant/+Team OMEXP - Article/ISAAR 2021/Data/experiments","no","mono","no","18","no","white","no","Next","1000","no","768","19","1","19","C:/Users/elus/Documents/RecordingLSL_maybefinal/subject-6.csv","5","[<opensesame_plugins.lsl_start.liblsl.LSL_session object at 0x000001EB5EF03CC0>]","Kafkaesque Koffka","3.2.7","2","0","2","1024","2","48000","-16","experiment","0","6","even","NA","11646","162232","NA","6153","245768","242764","243766","244767","NA","NA","245768","NA","NA","162233","9646","241747","243265","244266","245268","241719","242747","241641","241719","163233","New experiment","yes","1024"
"<opensesame_plugins.lsl_start.liblsl.LSL_session object at 0x000001EB5EF03CC0>","0","black","[0.0, 0.0]","legacy","0","uniform","56","0","1","0","0","56","56","56","56","1","NA","56","NA","0","1","0","56","56","56","56","56","NA","56","56","1","Wed Nov 17 21:57:28 2021","-8.5","The main experiment item","yes","experiment.osexp","C:/Users/elus/Demant/+Team OMEXP - Article/ISAAR 2021/Data/experiments","no","mono","no","18","no","white","no","Next","1000","no","768","20","1","20","C:/Users/elus/Documents/RecordingLSL_maybefinal/subject-6.csv","5","[<opensesame_plugins.lsl_start.liblsl.LSL_session object at 0x000001EB5EF03CC0>]","Kafkaesque Koffka","3.2.7","3","0","2","1024","2","48000","-16","experiment","0","6","even","NA","11646","162232","NA","6153","249891","246886","247888","248890","NA","NA","249891","NA","NA","162233","9646","245877","247387","248389","249391","245847","246877","245770","245847","163233","New experiment","yes","1024"
"<opensesame_plugins.lsl_start.liblsl.LSL_session object at 0x000001EB5EF03CC0>","1","black","[0.0, 0.0]","legacy","0","uniform","57","0","1","0","0","57","57","57","57","1","NA","57","NA","0","1","0","57","57","57","57","57","NA","57","57","1","Wed Nov 17 21:57:28 2021","-8","The main experiment item","yes","experiment.osexp","C:/Users/elus/Demant/+Team OMEXP - Article/ISAAR 2021/Data/experiments","no","mono","no","18","no","white","no","Next","1000","no","768","21","1","21","C:/Users/elus/Documents/RecordingLSL_maybefinal/subject-6.csv","5","[<opensesame_plugins.lsl_start.liblsl.LSL_session object at 0x000001EB5EF03CC0>]","Kafkaesque Koffka","3.2.7","1","0","2","1024","2","48000","-16","experiment","0","6","even","NA","11646","162232","NA","6153","254044","251039","252041","253043","NA","NA","254044","NA","NA","162233","9646","250017","251540","252542","253544","249972","251017","249893","249972","163233","New experiment","yes","1024"
"<opensesame_plugins.lsl_start.liblsl.LSL_session object at 0x000001EB5EF03CC0>","1","black","[0.0, 0.0]","legacy","0","uniform","58","0","1","0","0","58","58","58","58","1","NA","58","NA","0","1","0","58","58","58","58","58","NA","58","58","1","Wed Nov 17 21:57:28 2021","-8","The main experiment item","yes","experiment.osexp","C:/Users/elus/Demant/+Team OMEXP - Article/ISAAR 2021/Data/experiments","no","mono","no","18","no","white","no","Next","1000","no","768","22","1","22","C:/Users/elus/Documents/RecordingLSL_maybefinal/subject-6.csv","5","[<opensesame_plugins.lsl_start.liblsl.LSL_session object at 0x000001EB5EF03CC0>]","Kafkaesque Koffka","3.2.7","2","0","2","1024","2","48000","-16","experiment","0","6","even","NA","11646","162232","NA","6153","258208","255200","256205","257207","NA","NA","258208","NA","NA","162233","9646","254177","255701","256706","257708","254139","255177","254046","254139","163233","New experiment","yes","1024"
"<opensesame_plugins.lsl_start.liblsl.LSL_session object at 0x000001EB5EF03CC0>","1","black","[0.0, 0.0]","legacy","0","uniform","59","0","1","0","0","59","59","59","59","1","NA","59","NA","0","1","0","59","59","59","59","59","NA","59","59","1","Wed Nov 17 21:57:28 2021","-8","The main experiment item","yes","experiment.osexp","C:/Users/elus/Demant/+Team OMEXP - Article/ISAAR 2021/Data/experiments","no","mono","no","18","no","white","no","Next","1000","no","768","23","1","23","C:/Users/elus/Documents/RecordingLSL_maybefinal/subject-6.csv","5","[<opensesame_plugins.lsl_start.liblsl.LSL_session object at 0x000001EB5EF03CC0>]","Kafkaesque Koffka","3.2.7","3","0","2","1024","2","48000","-16","experiment","0","6","even","NA","11646","162232","NA","6153","262364","259355","260361","261363","NA","NA","262364","NA","NA","162233","9646","258343","259856","260862","261864","258304","259344","258210","258304","163233","New experiment","yes","1024"
"<opensesame_plugins.lsl_start.liblsl.LSL_session object at 0x000001EB5EF03CC0>","0","black","[0.0, 0.0]","legacy","0","uniform","60","0","1","0","0","60","60","60","60","1","NA","60","NA","0","1","0","60","60","60","60","60","NA","60","60","1","Wed Nov 17 21:57:28 2021","-8.5","The main experiment item","yes","experiment.osexp","C:/Users/elus/Demant/+Team OMEXP - Article/ISAAR 2021/Data/experiments","no","mono","no","18","no","white","no","Next","1000","no","768","24","1","24","C:/Users/elus/Documents/RecordingLSL_maybefinal/subject-6.csv","5","[<opensesame_plugins.lsl_start.liblsl.LSL_session object at 0x000001EB5EF03CC0>]","Kafkaesque Koffka","3.2.7","1","0","2","1024","2","48000","-16","experiment","0","6","even","NA","11646","162232","NA","6153","266520","263514","264516","265519","NA","NA","266520","NA","NA","162233","9646","262497","264015","265018","266020","262461","263499","262366","262461","163233","New experiment","yes","1024"
"<opensesame_plugins.lsl_start.liblsl.LSL_session object at 0x000001EB5EF03CC0>","1","black","[0.0, 0.0]","legacy","0","uniform","61","0","1","0","0","61","61","61","61","1","NA","61","NA","0","1","0","61","61","61","61","61","NA","61","61","1","Wed Nov 17 21:57:28 2021","-8","The main experiment item","yes","experiment.osexp","C:/Users/elus/Demant/+Team OMEXP - Article/ISAAR 2021/Data/experiments","no","mono","no","18","no","white","no","Next","1000","no","768","25","1","25","C:/Users/elus/Documents/RecordingLSL_maybefinal/subject-6.csv","5","[<opensesame_plugins.lsl_start.liblsl.LSL_session object at 0x000001EB5EF03CC0>]","Kafkaesque Koffka","3.2.7","2","0","2","1024","2","48000","-16","experiment","0","6","even","NA","11646","162232","NA","6153","270673","267665","268670","269672","NA","NA","270673","NA","NA","162233","9646","266653","268166","269171","270173","266616","267654","266522","266616","163233","New experiment","yes","1024"
"<opensesame_plugins.lsl_start.liblsl.LSL_session object at 0x000001EB5EF03CC0>","1","black","[0.0, 0.0]","legacy","0","uniform","62","0","1","0","0","62","62","62","62","1","NA","62","NA","0","1","0","62","62","62","62","62","NA","62","62","1","Wed Nov 17 21:57:28 2021","-8","The main experiment item","yes","experiment.osexp","C:/Users/elus/Demant/+Team OMEXP - Article/ISAAR 2021/Data/experiments","no","mono","no","18","no","white","no","Next","1000","no","768","26","1","26","C:/Users/elus/Documents/RecordingLSL_maybefinal/subject-6.csv","5","[<opensesame_plugins.lsl_start.liblsl.LSL_session object at 0x000001EB5EF03CC0>]","Kafkaesque Koffka","3.2.7","3","0","2","1024","2","48000","-16","experiment","0","6","even","NA","11646","162232","NA","6153","274832","271824","272829","273831","NA","NA","274832","NA","NA","162233","9646","270810","272325","273330","274332","270770","271810","270675","270770","163233","New experiment","yes","1024"
"<opensesame_plugins.lsl_start.liblsl.LSL_session object at 0x000001EB5EF03CC0>","0","black","[0.0, 0.0]","legacy","0","uniform","63","0","1","0","0","63","63","63","63","1","NA","63","NA","0","1","0","63","63","63","63","63","NA","63","63","1","Wed Nov 17 21:57:28 2021","-8","The main experiment item","yes","experiment.osexp","C:/Users/elus/Demant/+Team OMEXP - Article/ISAAR 2021/Data/experiments","no","mono","no","18","no","white","no","Next","1000","no","768","27","1","27","C:/Users/elus/Documents/RecordingLSL_maybefinal/subject-6.csv","5","[<opensesame_plugins.lsl_start.liblsl.LSL_session object at 0x000001EB5EF03CC0>]","Kafkaesque Koffka","3.2.7","1","0","2","1024","2","48000","-16","experiment","0","6","even","NA","11646","162232","NA","6153","278989","275984","276986","277988","NA","NA","278989","NA","NA","162233","9646","274965","276485","277487","278489","274928","275966","274834","274928","163233","New experiment","yes","1024"
"<opensesame_plugins.lsl_start.liblsl.LSL_session object at 0x000001EB5EF03CC0>","1","black","[0.0, 0.0]","legacy","0","uniform","64","0","1","0","0","64","64","64","64","1","NA","64","NA","0","1","0","64","64","64","64","64","NA","64","64","1","Wed Nov 17 21:57:28 2021","-7.5","The main experiment item","yes","experiment.osexp","C:/Users/elus/Demant/+Team OMEXP - Article/ISAAR 2021/Data/experiments","no","mono","no","18","no","white","no","Next","1000","no","768","28","1","28","C:/Users/elus/Documents/RecordingLSL_maybefinal/subject-6.csv","5","[<opensesame_plugins.lsl_start.liblsl.LSL_session object at 0x000001EB5EF03CC0>]","Kafkaesque Koffka","3.2.7","2","0","2","1024","2","48000","-16","experiment","0","6","even","NA","11646","162232","NA","6153","283149","280144","281146","282148","NA","NA","283149","NA","NA","162233","9646","279124","280645","281647","282649","279087","280127","278991","279087","163233","New experiment","yes","1024"
"<opensesame_plugins.lsl_start.liblsl.LSL_session object at 0x000001EB5EF03CC0>","1","black","[0.0, 0.0]","legacy","0","uniform","65","0","1","0","0","65","65","65","65","1","NA","65","NA","0","1","0","65","65","65","65","65","NA","65","65","1","Wed Nov 17 21:57:28 2021","-7.5","The main experiment item","yes","experiment.osexp","C:/Users/elus/Demant/+Team OMEXP - Article/ISAAR 2021/Data/experiments","no","mono","no","18","no","white","no","Next","1000","no","768","29","1","29","C:/Users/elus/Documents/RecordingLSL_maybefinal/subject-6.csv","5","[<opensesame_plugins.lsl_start.liblsl.LSL_session object at 0x000001EB5EF03CC0>]","Kafkaesque Koffka","3.2.7","3","0","2","1024","2","48000","-16","experiment","0","6","even","NA","11646","162232","NA","6153","287310","284305","285307","286309","NA","NA","287310","NA","NA","162233","9646","283287","284806","285808","286810","283245","284289","283151","283245","163233","New experiment","yes","1024"
"<opensesame_plugins.lsl_start.liblsl.LSL_session object at 0x000001EB5EF03CC0>","1","black","[0.0, 0.0]","legacy","0","uniform","66","0","1","0","0","66","66","66","66","1","NA","66","NA","0","1","0","66","66","66","66","66","NA","66","66","1","Wed Nov 17 21:57:28 2021","-7.5","The main experiment item","yes","experiment.osexp","C:/Users/elus/Demant/+Team OMEXP - Article/ISAAR 2021/Data/experiments","no","mono","no","18","no","white","no","Next","1000","no","768","30","1","30","C:/Users/elus/Documents/RecordingLSL_maybefinal/subject-6.csv","5","[<opensesame_plugins.lsl_start.liblsl.LSL_session object at 0x000001EB5EF03CC0>]","Kafkaesque Koffka","3.2.7","1","0","2","1024","2","48000","-16","experiment","0","6","even","NA","11646","162232","NA","6153","291470","288465","289467","290469","NA","NA","291470","NA","NA","162233","9646","287445","288966","289968","290970","287407","288446","287312","287407","163233","New experiment","yes","1024"
"<opensesame_plugins.lsl_start.liblsl.LSL_session object at 0x000001EB5EF03CC0>","1","black","[0.0, 0.0]","legacy","0","uniform","67","0","1","0","0","67","67","67","67","1","NA","67","NA","0","1","0","67","67","67","67","67","NA","67","67","1","Wed Nov 17 21:57:28 2021","-8","The main experiment item","yes","experiment.osexp","C:/Users/elus/Demant/+Team OMEXP - Article/ISAAR 2021/Data/experiments","no","mono","no","18","no","white","no","Next","1000","no","768","31","1","31","C:/Users/elus/Documents/RecordingLSL_maybefinal/subject-6.csv","5","[<opensesame_plugins.lsl_start.liblsl.LSL_session object at 0x000001EB5EF03CC0>]","Kafkaesque Koffka","3.2.7","2","0","2","1024","2","48000","-16","experiment","0","6","even","NA","11646","162232","NA","6153","295629","292624","293626","294628","NA","NA","295629","NA","NA","162233","9646","291605","293125","294127","295129","291567","292606","291472","291567","163233","New experiment","yes","1024"
"<opensesame_plugins.lsl_start.liblsl.LSL_session object at 0x000001EB5EF03CC0>","1","black","[0.0, 0.0]","legacy","0","uniform","68","0","1","0","0","68","68","68","68","1","NA","68","NA","0","1","0","68","68","68","68","68","NA","68","68","1","Wed Nov 17 21:57:28 2021","-8","The main experiment item","yes","experiment.osexp","C:/Users/elus/Demant/+Team OMEXP - Article/ISAAR 2021/Data/experiments","no","mono","no","18","no","white","no","Next","1000","no","768","32","1","32","C:/Users/elus/Documents/RecordingLSL_maybefinal/subject-6.csv","5","[<opensesame_plugins.lsl_start.liblsl.LSL_session object at 0x000001EB5EF03CC0>]","Kafkaesque Koffka","3.2.7","3","0","2","1024","2","48000","-16","experiment","0","6","even","NA","11646","162232","NA","6153","299786","296778","297783","298785","NA","NA","299786","NA","NA","162233","9646","295766","297279","298284","299286","295728","296767","295631","295728","163233","New experiment","yes","1024"
"<opensesame_plugins.lsl_start.liblsl.LSL_session object at 0x000001EB5EF03CC0>","0","black","[0.0, 0.0]","legacy","0","uniform","69","0","1","0","0","69","69","69","69","1","NA","69","NA","0","1","0","69","69","69","69","69","NA","69","69","1","Wed Nov 17 21:57:28 2021","-8","The main experiment item","yes","experiment.osexp","C:/Users/elus/Demant/+Team OMEXP - Article/ISAAR 2021/Data/experiments","no","mono","no","18","no","white","no","Next","1000","no","768","33","1","33","C:/Users/elus/Documents/RecordingLSL_maybefinal/subject-6.csv","5","[<opensesame_plugins.lsl_start.liblsl.LSL_session object at 0x000001EB5EF03CC0>]","Kafkaesque Koffka","3.2.7","1","0","2","1024","2","48000","-16","experiment","0","6","even","NA","11646","162232","NA","6153","303940","300935","301937","302939","NA","NA","303940","NA","NA","162233","9646","299919","301436","302438","303440","299883","300920","299789","299883","163233","New experiment","yes","1024"
"<opensesame_plugins.lsl_start.liblsl.LSL_session object at 0x000001EB5EF03CC0>","1","black","[0.0, 0.0]","legacy","0","uniform","70","0","1","0","0","70","70","70","70","1","NA","70","NA","0","1","0","70","70","70","70","70","NA","70","70","1","Wed Nov 17 21:57:28 2021","-7.5","The main experiment item","yes","experiment.osexp","C:/Users/elus/Demant/+Team OMEXP - Article/ISAAR 2021/Data/experiments","no","mono","no","18","no","white","no","Next","1000","no","768","34","1","34","C:/Users/elus/Documents/RecordingLSL_maybefinal/subject-6.csv","5","[<opensesame_plugins.lsl_start.liblsl.LSL_session object at 0x000001EB5EF03CC0>]","Kafkaesque Koffka","3.2.7","2","0","2","1024","2","48000","-16","experiment","0","6","even","NA","11646","162232","NA","6153","308094","305086","306091","307093","NA","NA","308094","NA","NA","162233","9646","304073","305586","306592","307594","304036","305075","303942","304036","163233","New experiment","yes","1024"
"<opensesame_plugins.lsl_start.liblsl.LSL_session object at 0x000001EB5EF03CC0>","1","black","[0.0, 0.0]","legacy","0","uniform","71","0","1","0","0","71","71","71","71","1","NA","71","NA","0","1","0","71","71","71","71","71","NA","71","71","1","Wed Nov 17 21:57:28 2021","-7.5","The main experiment item","yes","experiment.osexp","C:/Users/elus/Demant/+Team OMEXP - Article/ISAAR 2021/Data/experiments","no","mono","no","18","no","white","no","Next","1000","no","768","35","1","35","C:/Users/elus/Documents/RecordingLSL_maybefinal/subject-6.csv","5","[<opensesame_plugins.lsl_start.liblsl.LSL_session object at 0x000001EB5EF03CC0>]","Kafkaesque Koffka","3.2.7","3","0","2","1024","2","48000","-16","experiment","0","6","even","NA","11646","162232","NA","6153","312249","309241","310246","311248","NA","NA","312249","NA","NA","162233","9646","308226","309742","310747","311749","308191","309226","308096","308191","163233","New experiment","yes","1024"
"<opensesame_plugins.lsl_start.liblsl.LSL_session object at 0x000001EB5EF03CC0>","1","black","[0.0, 0.0]","legacy","0","uniform","72","0","2","0","0","72","72","72","72","2","NA","72","NA","0","2","0","72","72","72","72","72","NA","72","72","2","Wed Nov 17 21:57:28 2021","-6","The main experiment item","yes","experiment.osexp","C:/Users/elus/Demant/+Team OMEXP - Article/ISAAR 2021/Data/experiments","no","mono","no","18","no","white","no","Next","400","no","768","0","2","0","C:/Users/elus/Documents/RecordingLSL_maybefinal/subject-6.csv","10","[<opensesame_plugins.lsl_start.liblsl.LSL_session object at 0x000001EB5EF03CC0>]","Kafkaesque Koffka","3.2.7","1","0","2","1024","2","48000","-16","experiment","0","6","even","NA","11646","312357","NA","6153","317474","314466","315472","316474","NA","NA","317474","NA","NA","312358","9646","313446","314967","315973","316974","313416","314446","312251","313416","313358","New experiment","yes","1024"
"<opensesame_plugins.lsl_start.liblsl.LSL_session object at 0x000001EB5EF03CC0>","1","black","[0.0, 0.0]","legacy","0","uniform","73","0","2","0","0","73","73","73","73","2","NA","73","NA","0","2","0","73","73","73","73","73","NA","73","73","2","Wed Nov 17 21:57:28 2021","-6","The main experiment item","yes","experiment.osexp","C:/Users/elus/Demant/+Team OMEXP - Article/ISAAR 2021/Data/experiments","no","mono","no","18","no","white","no","Next","400","no","768","1","2","1","C:/Users/elus/Documents/RecordingLSL_maybefinal/subject-6.csv","10","[<opensesame_plugins.lsl_start.liblsl.LSL_session object at 0x000001EB5EF03CC0>]","Kafkaesque Koffka","3.2.7","2","0","2","1024","2","48000","-16","experiment","0","6","even","NA","11646","312357","NA","6153","321627","318620","319624","320626","NA","NA","321627","NA","NA","312358","9646","317607","319121","320125","321127","317571","318607","317476","317571","313358","New experiment","yes","1024"
"<opensesame_plugins.lsl_start.liblsl.LSL_session object at 0x000001EB5EF03CC0>","1","black","[0.0, 0.0]","legacy","0","uniform","74","0","2","0","0","74","74","74","74","2","NA","74","NA","0","2","0","74","74","74","74","74","NA","74","74","2","Wed Nov 17 21:57:28 2021","-6","The main experiment item","yes","experiment.osexp","C:/Users/elus/Demant/+Team OMEXP - Article/ISAAR 2021/Data/experiments","no","mono","no","18","no","white","no","Next","400","no","768","2","2","2","C:/Users/elus/Documents/RecordingLSL_maybefinal/subject-6.csv","10","[<opensesame_plugins.lsl_start.liblsl.LSL_session object at 0x000001EB5EF03CC0>]","Kafkaesque Koffka","3.2.7","3","0","2","1024","2","48000","-16","experiment","0","6","even","NA","11646","312357","NA","6153","325784","322775","323781","324783","NA","NA","325784","NA","NA","312358","9646","321764","323276","324282","325284","321727","322765","321632","321727","313358","New experiment","yes","1024"
"<opensesame_plugins.lsl_start.liblsl.LSL_session object at 0x000001EB5EF03CC0>","1","black","[0.0, 0.0]","legacy","0","uniform","75","0","2","0","0","75","75","75","75","2","NA","75","NA","0","2","0","75","75","75","75","75","NA","75","75","2","Wed Nov 17 21:57:28 2021","-7","The main experiment item","yes","experiment.osexp","C:/Users/elus/Demant/+Team OMEXP - Article/ISAAR 2021/Data/experiments","no","mono","no","18","no","white","no","Next","400","no","768","3","2","3","C:/Users/elus/Documents/RecordingLSL_maybefinal/subject-6.csv","10","[<opensesame_plugins.lsl_start.liblsl.LSL_session object at 0x000001EB5EF03CC0>]","Kafkaesque Koffka","3.2.7","1","0","2","1024","2","48000","-16","experiment","0","6","even","NA","11646","312357","NA","6153","329951","326942","327947","328950","NA","NA","329951","NA","NA","312358","9646","325924","327443","328448","329451","325892","326924","325786","325891","313358","New experiment","yes","1024"
"<opensesame_plugins.lsl_start.liblsl.LSL_session object at 0x000001EB5EF03CC0>","1","black","[0.0, 0.0]","legacy","0","uniform","76","0","2","0","0","76","76","76","76","2","NA","76","NA","0","2","0","76","76","76","76","76","NA","76","76","2","Wed Nov 17 21:57:28 2021","-7","The main experiment item","yes","experiment.osexp","C:/Users/elus/Demant/+Team OMEXP - Article/ISAAR 2021/Data/experiments","no","mono","no","18","no","white","no","Next","400","no","768","4","2","4","C:/Users/elus/Documents/RecordingLSL_maybefinal/subject-6.csv","10","[<opensesame_plugins.lsl_start.liblsl.LSL_session object at 0x000001EB5EF03CC0>]","Kafkaesque Koffka","3.2.7","2","0","2","1024","2","48000","-16","experiment","0","6","even","NA","11646","312357","NA","6153","334105","331097","332102","333104","NA","NA","334105","NA","NA","312358","9646","330086","331598","332603","333605","330047","331086","329953","330047","313358","New experiment","yes","1024"
"<opensesame_plugins.lsl_start.liblsl.LSL_session object at 0x000001EB5EF03CC0>","0","black","[0.0, 0.0]","legacy","0","uniform","77","0","2","0","0","77","77","77","77","2","NA","77","NA","0","2","0","77","77","77","77","77","NA","77","77","2","Wed Nov 17 21:57:28 2021","-7","The main experiment item","yes","experiment.osexp","C:/Users/elus/Demant/+Team OMEXP - Article/ISAAR 2021/Data/experiments","no","mono","no","18","no","white","no","Next","400","no","768","5","2","5","C:/Users/elus/Documents/RecordingLSL_maybefinal/subject-6.csv","10","[<opensesame_plugins.lsl_start.liblsl.LSL_session object at 0x000001EB5EF03CC0>]","Kafkaesque Koffka","3.2.7","3","0","2","1024","2","48000","-16","experiment","0","6","even","NA","11646","312357","NA","6153","338261","335256","336258","337260","NA","NA","338261","NA","NA","312358","9646","334240","335757","336759","337761","334203","335240","334109","334203","313358","New experiment","yes","1024"
"<opensesame_plugins.lsl_start.liblsl.LSL_session object at 0x000001EB5EF03CC0>","1","black","[0.0, 0.0]","legacy","0","uniform","78","0","2","0","0","78","78","78","78","2","NA","78","NA","0","2","0","78","78","78","78","78","NA","78","78","2","Wed Nov 17 21:57:28 2021","-6.5","The main experiment item","yes","experiment.osexp","C:/Users/elus/Demant/+Team OMEXP - Article/ISAAR 2021/Data/experiments","no","mono","no","18","no","white","no","Next","400","no","768","6","2","6","C:/Users/elus/Documents/RecordingLSL_maybefinal/subject-6.csv","10","[<opensesame_plugins.lsl_start.liblsl.LSL_session object at 0x000001EB5EF03CC0>]","Kafkaesque Koffka","3.2.7","1","0","2","1024","2","48000","-16","experiment","0","6","even","NA","11646","312357","NA","6153","342429","339425","340427","341429","NA","NA","342429","NA","NA","312358","9646","338403","339926","340928","341929","338368","339409","338263","338368","313358","New experiment","yes","1024"
"<opensesame_plugins.lsl_start.liblsl.LSL_session object at 0x000001EB5EF03CC0>","0","black","[0.0, 0.0]","legacy","0","uniform","79","0","2","0","0","79","79","79","79","2","NA","79","NA","0","2","0","79","79","79","79","79","NA","79","79","2","Wed Nov 17 21:57:28 2021","-6.5","The main experiment item","yes","experiment.osexp","C:/Users/elus/Demant/+Team OMEXP - Article/ISAAR 2021/Data/experiments","no","mono","no","18","no","white","no","Next","400","no","768","7","2","7","C:/Users/elus/Documents/RecordingLSL_maybefinal/subject-6.csv","10","[<opensesame_plugins.lsl_start.liblsl.LSL_session object at 0x000001EB5EF03CC0>]","Kafkaesque Koffka","3.2.7","2","0","2","1024","2","48000","-16","experiment","0","6","even","NA","11646","312357","NA","6153","346590","343585","344587","345589","NA","NA","346590","NA","NA","312358","9646","342569","344086","345088","346090","342534","343570","342438","342534","313358","New experiment","yes","1024"
"<opensesame_plugins.lsl_start.liblsl.LSL_session object at 0x000001EB5EF03CC0>","1","black","[0.0, 0.0]","legacy","0","uniform","80","0","2","0","0","80","80","80","80","2","NA","80","NA","0","2","0","80","80","80","80","80","NA","80","80","2","Wed Nov 17 21:57:28 2021","-6","The main experiment item","yes","experiment.osexp","C:/Users/elus/Demant/+Team OMEXP - Article/ISAAR 2021/Data/experiments","no","mono","no","18","no","white","no","Next","400","no","768","8","2","8","C:/Users/elus/Documents/RecordingLSL_maybefinal/subject-6.csv","10","[<opensesame_plugins.lsl_start.liblsl.LSL_session object at 0x000001EB5EF03CC0>]","Kafkaesque Koffka","3.2.7","3","0","2","1024","2","48000","-16","experiment","0","6","even","NA","11646","312357","NA","6153","350743","347735","348740","349742","NA","NA","350743","NA","NA","312358","9646","346725","348236","349241","350243","346686","347725","346592","346686","313358","New experiment","yes","1024"
"<opensesame_plugins.lsl_start.liblsl.LSL_session object at 0x000001EB5EF03CC0>","1","black","[0.0, 0.0]","legacy","0","uniform","81","0","2","0","0","81","81","81","81","2","NA","81","NA","0","2","0","81","81","81","81","81","NA","81","81","2","Wed Nov 17 21:57:28 2021","-6","The main experiment item","yes","experiment.osexp","C:/Users/elus/Demant/+Team OMEXP - Article/ISAAR 2021/Data/experiments","no","mono","no","18","no","white","no","Next","400","no","768","9","2","9","C:/Users/elus/Documents/RecordingLSL_maybefinal/subject-6.csv","10","[<opensesame_plugins.lsl_start.liblsl.LSL_session object at 0x000001EB5EF03CC0>]","Kafkaesque Koffka","3.2.7","1","0","2","1024","2","48000","-16","experiment","0","6","even","NA","11646","312357","NA","6153","354901","351895","352897","353900","NA","NA","354901","NA","NA","312358","9646","350876","352396","353399","354401","350840","351879","350745","350840","313358","New experiment","yes","1024"
"<opensesame_plugins.lsl_start.liblsl.LSL_session object at 0x000001EB5EF03CC0>","1","black","[0.0, 0.0]","legacy","0","uniform","82","0","2","0","0","82","82","82","82","2","NA","82","NA","0","2","0","82","82","82","82","82","NA","82","82","2","Wed Nov 17 21:57:28 2021","-6","The main experiment item","yes","experiment.osexp","C:/Users/elus/Demant/+Team OMEXP - Article/ISAAR 2021/Data/experiments","no","mono","no","18","no","white","no","Next","400","no","768","10","2","10","C:/Users/elus/Documents/RecordingLSL_maybefinal/subject-6.csv","10","[<opensesame_plugins.lsl_start.liblsl.LSL_session object at 0x000001EB5EF03CC0>]","Kafkaesque Koffka","3.2.7","2","0","2","1024","2","48000","-16","experiment","0","6","even","NA","11646","312357","NA","6153","359061","356056","357058","358060","NA","NA","359061","NA","NA","312358","9646","355037","356557","357559","358561","355002","356039","354908","355002","313358","New experiment","yes","1024"
"<opensesame_plugins.lsl_start.liblsl.LSL_session object at 0x000001EB5EF03CC0>","1","black","[0.0, 0.0]","legacy","0","uniform","83","0","2","0","0","83","83","83","83","2","NA","83","NA","0","2","0","83","83","83","83","83","NA","83","83","2","Wed Nov 17 21:57:28 2021","-6.5","The main experiment item","yes","experiment.osexp","C:/Users/elus/Demant/+Team OMEXP - Article/ISAAR 2021/Data/experiments","no","mono","no","18","no","white","no","Next","400","no","768","11","2","11","C:/Users/elus/Documents/RecordingLSL_maybefinal/subject-6.csv","10","[<opensesame_plugins.lsl_start.liblsl.LSL_session object at 0x000001EB5EF03CC0>]","Kafkaesque Koffka","3.2.7","3","0","2","1024","2","48000","-16","experiment","0","6","even","NA","11646","312357","NA","6153","363220","360211","361217","362219","NA","NA","363220","NA","NA","312358","9646","359195","360712","361718","362720","359160","360195","359066","359160","313358","New experiment","yes","1024"
"<opensesame_plugins.lsl_start.liblsl.LSL_session object at 0x000001EB5EF03CC0>","1","black","[0.0, 0.0]","legacy","0","uniform","84","0","2","0","0","84","84","84","84","2","NA","84","NA","0","2","0","84","84","84","84","84","NA","84","84","2","Wed Nov 17 21:57:28 2021","-6.5","The main experiment item","yes","experiment.osexp","C:/Users/elus/Demant/+Team OMEXP - Article/ISAAR 2021/Data/experiments","no","mono","no","18","no","white","no","Next","400","no","768","12","2","12","C:/Users/elus/Documents/RecordingLSL_maybefinal/subject-6.csv","10","[<opensesame_plugins.lsl_start.liblsl.LSL_session object at 0x000001EB5EF03CC0>]","Kafkaesque Koffka","3.2.7","1","0","2","1024","2","48000","-16","experiment","0","6","even","NA","11646","312357","NA","6153","367383","364374","365376","366381","NA","NA","367383","NA","NA","312358","9646","363357","364875","365879","366883","363319","364358","363222","363319","313358","New experiment","yes","1024"
"<opensesame_plugins.lsl_start.liblsl.LSL_session object at 0x000001EB5EF03CC0>","1","black","[0.0, 0.0]","legacy","0","uniform","85","0","2","0","0","85","85","85","85","2","NA","85","NA","0","2","0","85","85","85","85","85","NA","85","85","2","Wed Nov 17 21:57:28 2021","-6.5","The main experiment item","yes","experiment.osexp","C:/Users/elus/Demant/+Team OMEXP - Article/ISAAR 2021/Data/experiments","no","mono","no","18","no","white","no","Next","400","no","768","13","2","13","C:/Users/elus/Documents/RecordingLSL_maybefinal/subject-6.csv","10","[<opensesame_plugins.lsl_start.liblsl.LSL_session object at 0x000001EB5EF03CC0>]","Kafkaesque Koffka","3.2.7","2","0","2","1024","2","48000","-16","experiment","0","6","even","NA","11646","312357","NA","6153","371545","368531","369542","370544","NA","NA","371545","NA","NA","312358","9646","367516","369032","370043","371045","367481","368516","367387","367480","313358","New experiment","yes","1024"
"<opensesame_plugins.lsl_start.liblsl.LSL_session object at 0x000001EB5EF03CC0>","1","black","[0.0, 0.0]","legacy","0","uniform","86","0","2","0","0","86","86","86","86","2","NA","86","NA","0","2","0","86","86","86","86","86","NA","86","86","2","Wed Nov 17 21:57:28 2021","-7","The main experiment item","yes","experiment.osexp","C:/Users/elus/Demant/+Team OMEXP - Article/ISAAR 2021/Data/experiments","no","mono","no","18","no","white","no","Next","400","no","768","14","2","14","C:/Users/elus/Documents/RecordingLSL_maybefinal/subject-6.csv","10","[<opensesame_plugins.lsl_start.liblsl.LSL_session object at 0x000001EB5EF03CC0>]","Kafkaesque Koffka","3.2.7","3","0","2","1024","2","48000","-16","experiment","0","6","even","NA","11646","312357","NA","6153","375700","372693","373697","374699","NA","NA","375700","NA","NA","312358","9646","371676","373194","374198","375200","371641","372676","371547","371641","313358","New experiment","yes","1024"
"<opensesame_plugins.lsl_start.liblsl.LSL_session object at 0x000001EB5EF03CC0>","1","black","[0.0, 0.0]","legacy","0","uniform","87","0","2","0","0","87","87","87","87","2","NA","87","NA","0","2","0","87","87","87","87","87","NA","87","87","2","Wed Nov 17 21:57:28 2021","-7","The main experiment item","yes","experiment.osexp","C:/Users/elus/Demant/+Team OMEXP - Article/ISAAR 2021/Data/experiments","no","mono","no","18","no","white","no","Next","400","no","768","15","2","15","C:/Users/elus/Documents/RecordingLSL_maybefinal/subject-6.csv","10","[<opensesame_plugins.lsl_start.liblsl.LSL_session object at 0x000001EB5EF03CC0>]","Kafkaesque Koffka","3.2.7","1","0","2","1024","2","48000","-16","experiment","0","6","even","NA","11646","312357","NA","6153","379853","376845","377851","378853","NA","NA","379853","NA","NA","312358","9646","375833","377346","378352","379353","375795","376835","375702","375795","313358","New experiment","yes","1024"
"<opensesame_plugins.lsl_start.liblsl.LSL_session object at 0x000001EB5EF03CC0>","0","black","[0.0, 0.0]","legacy","0","uniform","88","0","2","0","0","88","88","88","88","2","NA","88","NA","0","2","0","88","88","88","88","88","NA","88","88","2","Wed Nov 17 21:57:28 2021","-7","The main experiment item","yes","experiment.osexp","C:/Users/elus/Demant/+Team OMEXP - Article/ISAAR 2021/Data/experiments","no","mono","no","18","no","white","no","Next","400","no","768","16","2","16","C:/Users/elus/Documents/RecordingLSL_maybefinal/subject-6.csv","10","[<opensesame_plugins.lsl_start.liblsl.LSL_session object at 0x000001EB5EF03CC0>]","Kafkaesque Koffka","3.2.7","2","0","2","1024","2","48000","-16","experiment","0","6","even","NA","11646","312357","NA","6153","384010","381004","382006","383009","NA","NA","384010","NA","NA","312358","9646","379990","381505","382508","383510","379949","380990","379855","379949","313358","New experiment","yes","1024"
"<opensesame_plugins.lsl_start.liblsl.LSL_session object at 0x000001EB5EF03CC0>","1","black","[0.0, 0.0]","legacy","0","uniform","89","0","2","0","0","89","89","89","89","2","NA","89","NA","0","2","0","89","89","89","89","89","NA","89","89","2","Wed Nov 17 21:57:28 2021","-6.5","The main experiment item","yes","experiment.osexp","C:/Users/elus/Demant/+Team OMEXP - Article/ISAAR 2021/Data/experiments","no","mono","no","18","no","white","no","Next","400","no","768","17","2","17","C:/Users/elus/Documents/RecordingLSL_maybefinal/subject-6.csv","10","[<opensesame_plugins.lsl_start.liblsl.LSL_session object at 0x000001EB5EF03CC0>]","Kafkaesque Koffka","3.2.7","3","0","2","1024","2","48000","-16","experiment","0","6","even","NA","11646","312357","NA","6153","388170","385165","386167","387169","NA","NA","388170","NA","NA","312358","9646","384144","385666","386668","387670","384109","385146","384014","384109","313358","New experiment","yes","1024"
"<opensesame_plugins.lsl_start.liblsl.LSL_session object at 0x000001EB5EF03CC0>","0","black","[0.0, 0.0]","legacy","0","uniform","90","0","2","0","0","90","90","90","90","2","NA","90","NA","0","2","0","90","90","90","90","90","NA","90","90","2","Wed Nov 17 21:57:28 2021","-6.5","The main experiment item","yes","experiment.osexp","C:/Users/elus/Demant/+Team OMEXP - Article/ISAAR 2021/Data/experiments","no","mono","no","18","no","white","no","Next","400","no","768","18","2","18","C:/Users/elus/Documents/RecordingLSL_maybefinal/subject-6.csv","10","[<opensesame_plugins.lsl_start.liblsl.LSL_session object at 0x000001EB5EF03CC0>]","Kafkaesque Koffka","3.2.7","1","0","2","1024","2","48000","-16","experiment","0","6","even","NA","11646","312357","NA","6153","392322","389315","390318","391321","NA","NA","392322","NA","NA","312358","9646","388302","389816","390820","391822","388267","389304","388172","388267","313358","New experiment","yes","1024"
"<opensesame_plugins.lsl_start.liblsl.LSL_session object at 0x000001EB5EF03CC0>","1","black","[0.0, 0.0]","legacy","0","uniform","91","0","2","0","0","91","91","91","91","2","NA","91","NA","0","2","0","91","91","91","91","91","NA","91","91","2","Wed Nov 17 21:57:28 2021","-6","The main experiment item","yes","experiment.osexp","C:/Users/elus/Demant/+Team OMEXP - Article/ISAAR 2021/Data/experiments","no","mono","no","18","no","white","no","Next","400","no","768","19","2","19","C:/Users/elus/Documents/RecordingLSL_maybefinal/subject-6.csv","10","[<opensesame_plugins.lsl_start.liblsl.LSL_session object at 0x000001EB5EF03CC0>]","Kafkaesque Koffka","3.2.7","2","0","2","1024","2","48000","-16","experiment","0","6","even","NA","11646","312357","NA","6153","396478","393474","394476","395477","NA","NA","396478","NA","NA","312358","9646","392454","393975","394977","395978","392419","393455","392324","392419","313358","New experiment","yes","1024"
"<opensesame_plugins.lsl_start.liblsl.LSL_session object at 0x000001EB5EF03CC0>","0","black","[0.0, 0.0]","legacy","0","uniform","92","0","2","0","0","92","92","92","92","2","NA","92","NA","0","2","0","92","92","92","92","92","NA","92","92","2","Wed Nov 17 21:57:28 2021","-6","The main experiment item","yes","experiment.osexp","C:/Users/elus/Demant/+Team OMEXP - Article/ISAAR 2021/Data/experiments","no","mono","no","18","no","white","no","Next","400","no","768","20","2","20","C:/Users/elus/Documents/RecordingLSL_maybefinal/subject-6.csv","10","[<opensesame_plugins.lsl_start.liblsl.LSL_session object at 0x000001EB5EF03CC0>]","Kafkaesque Koffka","3.2.7","3","0","2","1024","2","48000","-16","experiment","0","6","even","NA","11646","312357","NA","6153","400640","397630","398637","399639","NA","NA","400640","NA","NA","312358","9646","396614","398131","399138","400140","396577","397614","396484","396577","313358","New experiment","yes","1024"
"<opensesame_plugins.lsl_start.liblsl.LSL_session object at 0x000001EB5EF03CC0>","1","black","[0.0, 0.0]","legacy","0","uniform","93","0","2","0","0","93","93","93","93","2","NA","93","NA","0","2","0","93","93","93","93","93","NA","93","93","2","Wed Nov 17 21:57:28 2021","-5.5","The main experiment item","yes","experiment.osexp","C:/Users/elus/Demant/+Team OMEXP - Article/ISAAR 2021/Data/experiments","no","mono","no","18","no","white","no","Next","400","no","768","21","2","21","C:/Users/elus/Documents/RecordingLSL_maybefinal/subject-6.csv","10","[<opensesame_plugins.lsl_start.liblsl.LSL_session object at 0x000001EB5EF03CC0>]","Kafkaesque Koffka","3.2.7","1","0","2","1024","2","48000","-16","experiment","0","6","even","NA","11646","312357","NA","6153","404800","401792","402797","403799","NA","NA","404800","NA","NA","312358","9646","400773","402293","403298","404300","400736","401773","400642","400736","313358","New experiment","yes","1024"
"<opensesame_plugins.lsl_start.liblsl.LSL_session object at 0x000001EB5EF03CC0>","1","black","[0.0, 0.0]","legacy","0","uniform","94","0","2","0","0","94","94","94","94","2","NA","94","NA","0","2","0","94","94","94","94","94","NA","94","94","2","Wed Nov 17 21:57:28 2021","-5.5","The main experiment item","yes","experiment.osexp","C:/Users/elus/Demant/+Team OMEXP - Article/ISAAR 2021/Data/experiments","no","mono","no","18","no","white","no","Next","400","no","768","22","2","22","C:/Users/elus/Documents/RecordingLSL_maybefinal/subject-6.csv","10","[<opensesame_plugins.lsl_start.liblsl.LSL_session object at 0x000001EB5EF03CC0>]","Kafkaesque Koffka","3.2.7","2","0","2","1024","2","48000","-16","experiment","0","6","even","NA","11646","312357","NA","6153","408958","405953","406955","407957","NA","NA","408958","NA","NA","312358","9646","404937","406454","407456","408458","404895","405937","404802","404895","313358","New experiment","yes","1024"
"<opensesame_plugins.lsl_start.liblsl.LSL_session object at 0x000001EB5EF03CC0>","1","black","[0.0, 0.0]","legacy","0","uniform","95","0","2","0","0","95","95","95","95","2","NA","95","NA","0","2","0","95","95","95","95","95","NA","95","95","2","Wed Nov 17 21:57:28 2021","-5.5","The main experiment item","yes","experiment.osexp","C:/Users/elus/Demant/+Team OMEXP - Article/ISAAR 2021/Data/experiments","no","mono","no","18","no","white","no","Next","400","no","768","23","2","23","C:/Users/elus/Documents/RecordingLSL_maybefinal/subject-6.csv","10","[<opensesame_plugins.lsl_start.liblsl.LSL_session object at 0x000001EB5EF03CC0>]","Kafkaesque Koffka","3.2.7","3","0","2","1024","2","48000","-16","experiment","0","6","even","NA","11646","312357","NA","6153","413113","410104","411110","412112","NA","NA","413113","NA","NA","312358","9646","409095","410605","411611","412613","409054","410095","408960","409054","313358","New experiment","yes","1024"
"<opensesame_plugins.lsl_start.liblsl.LSL_session object at 0x000001EB5EF03CC0>","1","black","[0.0, 0.0]","legacy","0","uniform","96","0","2","0","0","96","96","96","96","2","NA","96","NA","0","2","0","96","96","96","96","96","NA","96","96","2","Wed Nov 17 21:57:28 2021","-6","The main experiment item","yes","experiment.osexp","C:/Users/elus/Demant/+Team OMEXP - Article/ISAAR 2021/Data/experiments","no","mono","no","18","no","white","no","Next","400","no","768","24","2","24","C:/Users/elus/Documents/RecordingLSL_maybefinal/subject-6.csv","10","[<opensesame_plugins.lsl_start.liblsl.LSL_session object at 0x000001EB5EF03CC0>]","Kafkaesque Koffka","3.2.7","1","0","2","1024","2","48000","-16","experiment","0","6","even","NA","11646","312357","NA","6153","417279","414270","415275","416277","NA","NA","417279","NA","NA","312358","9646","413251","414771","415776","416779","413214","414251","413115","413214","313358","New experiment","yes","1024"
"<opensesame_plugins.lsl_start.liblsl.LSL_session object at 0x000001EB5EF03CC0>","1","black","[0.0, 0.0]","legacy","0","uniform","97","0","2","0","0","97","97","97","97","2","NA","97","NA","0","2","0","97","97","97","97","97","NA","97","97","2","Wed Nov 17 21:57:28 2021","-6","The main experiment item","yes","experiment.osexp","C:/Users/elus/Demant/+Team OMEXP - Article/ISAAR 2021/Data/experiments","no","mono","no","18","no","white","no","Next","400","no","768","25","2","25","C:/Users/elus/Documents/RecordingLSL_maybefinal/subject-6.csv","10","[<opensesame_plugins.lsl_start.liblsl.LSL_session object at 0x000001EB5EF03CC0>]","Kafkaesque Koffka","3.2.7","2","0","2","1024","2","48000","-16","experiment","0","6","even","NA","11646","312357","NA","6153","421439","418434","419436","420438","NA","NA","421439","NA","NA","312358","9646","417414","418935","419937","420939","417372","418416","417280","417372","313358","New experiment","yes","1024"
"<opensesame_plugins.lsl_start.liblsl.LSL_session object at 0x000001EB5EF03CC0>","1","black","[0.0, 0.0]","legacy","0","uniform","98","0","2","0","0","98","98","98","98","2","NA","98","NA","0","2","0","98","98","98","98","98","NA","98","98","2","Wed Nov 17 21:57:28 2021","-6","The main experiment item","yes","experiment.osexp","C:/Users/elus/Demant/+Team OMEXP - Article/ISAAR 2021/Data/experiments","no","mono","no","18","no","white","no","Next","400","no","768","26","2","26","C:/Users/elus/Documents/RecordingLSL_maybefinal/subject-6.csv","10","[<opensesame_plugins.lsl_start.liblsl.LSL_session object at 0x000001EB5EF03CC0>]","Kafkaesque Koffka","3.2.7","3","0","2","1024","2","48000","-16","experiment","0","6","even","NA","11646","312357","NA","6153","425590","422585","423587","424589","NA","NA","425590","NA","NA","312358","9646","421575","423086","424088","425090","421537","422575","421441","421537","313358","New experiment","yes","1024"
"<opensesame_plugins.lsl_start.liblsl.LSL_session object at 0x000001EB5EF03CC0>","1","black","[0.0, 0.0]","legacy","0","uniform","99","0","2","0","0","99","99","99","99","2","NA","99","NA","0","2","0","99","99","99","99","99","NA","99","99","2","Wed Nov 17 21:57:28 2021","-6.5","The main experiment item","yes","experiment.osexp","C:/Users/elus/Demant/+Team OMEXP - Article/ISAAR 2021/Data/experiments","no","mono","no","18","no","white","no","Next","400","no","768","27","2","27","C:/Users/elus/Documents/RecordingLSL_maybefinal/subject-6.csv","10","[<opensesame_plugins.lsl_start.liblsl.LSL_session object at 0x000001EB5EF03CC0>]","Kafkaesque Koffka","3.2.7","1","0","2","1024","2","48000","-16","experiment","0","6","even","NA","11646","312357","NA","6153","429743","426734","427740","428742","NA","NA","429743","NA","NA","312358","9646","425723","427235","428241","429243","425686","426724","425592","425686","313358","New experiment","yes","1024"
"<opensesame_plugins.lsl_start.liblsl.LSL_session object at 0x000001EB5EF03CC0>","1","black","[0.0, 0.0]","legacy","0","uniform","100","0","2","0","0","100","100","100","100","2","NA","100","NA","0","2","0","100","100","100","100","100","NA","100","100","2","Wed Nov 17 21:57:28 2021","-6.5","The main experiment item","yes","experiment.osexp","C:/Users/elus/Demant/+Team OMEXP - Article/ISAAR 2021/Data/experiments","no","mono","no","18","no","white","no","Next","400","no","768","28","2","28","C:/Users/elus/Documents/RecordingLSL_maybefinal/subject-6.csv","10","[<opensesame_plugins.lsl_start.liblsl.LSL_session object at 0x000001EB5EF03CC0>]","Kafkaesque Koffka","3.2.7","2","0","2","1024","2","48000","-16","experiment","0","6","even","NA","11646","312357","NA","6153","433899","430894","431896","432898","NA","NA","433899","NA","NA","312358","9646","429876","431395","432397","433399","429839","430878","429745","429839","313358","New experiment","yes","1024"
"<opensesame_plugins.lsl_start.liblsl.LSL_session object at 0x000001EB5EF03CC0>","1","black","[0.0, 0.0]","legacy","0","uniform","101","0","2","0","0","101","101","101","101","2","NA","101","NA","0","2","0","101","101","101","101","101","NA","101","101","2","Wed Nov 17 21:57:28 2021","-6.5","The main experiment item","yes","experiment.osexp","C:/Users/elus/Demant/+Team OMEXP - Article/ISAAR 2021/Data/experiments","no","mono","no","18","no","white","no","Next","400","no","768","29","2","29","C:/Users/elus/Documents/RecordingLSL_maybefinal/subject-6.csv","10","[<opensesame_plugins.lsl_start.liblsl.LSL_session object at 0x000001EB5EF03CC0>]","Kafkaesque Koffka","3.2.7","3","0","2","1024","2","48000","-16","experiment","0","6","even","NA","11646","312357","NA","6153","438053","435045","436050","437052","NA","NA","438053","NA","NA","312358","9646","434032","435546","436551","437553","433993","435035","433901","433993","313358","New experiment","yes","1024"
"<opensesame_plugins.lsl_start.liblsl.LSL_session object at 0x000001EB5EF03CC0>","1","black","[0.0, 0.0]","legacy","0","uniform","102","0","2","0","0","102","102","102","102","2","NA","102","NA","0","2","0","102","102","102","102","102","NA","102","102","2","Wed Nov 17 21:57:28 2021","-7","The main experiment item","yes","experiment.osexp","C:/Users/elus/Demant/+Team OMEXP - Article/ISAAR 2021/Data/experiments","no","mono","no","18","no","white","no","Next","400","no","768","30","2","30","C:/Users/elus/Documents/RecordingLSL_maybefinal/subject-6.csv","10","[<opensesame_plugins.lsl_start.liblsl.LSL_session object at 0x000001EB5EF03CC0>]","Kafkaesque Koffka","3.2.7","1","0","2","1024","2","48000","-16","experiment","0","6","even","NA","11646","312357","NA","6153","442205","439197","440202","441204","NA","NA","442205","NA","NA","312358","9646","438186","439698","440703","441705","438149","439187","438055","438149","313358","New experiment","yes","1024"
