"LSL","answer","background","calibration","canvas_backend","compensation","coordinates","count_change","count_cond_loop","count_condition","count_end","count_experiment","count_generate_answer","count_neutral","count_neutral_2","count_neutral_3","count_new_adaptive_init","count_new_calibration_light","count_new_logger","count_new_lsl_start_1","count_new_lsl_stop","count_new_sketchpad","count_new_sketchpad_1","count_new_sketchpad_2","count_sig1","count_sig2","count_sig3","count_sound_generation","count_stimulus","count_tracking","count_trial","count_trial_loop","datetime","depth","description","disable_garbage_collection","experiment_file","experiment_path","font_bold","font_family","font_italic","font_size","font_underline","foreground","form_clicks","form_response","frequency","fullscreen","height","live_row","live_row_cond_loop","live_row_trial_loop","logfile","mod_freq","notifiers","opensesame_codename","opensesame_version","position","repeat_cycle","round_decimals","sound_buf_size","sound_channels","sound_freq","sound_sample_size","start","stop","subject_nr","subject_parity","time_change","time_cond_loop","time_condition","time_end","time_experiment","time_generate_answer","time_neutral","time_neutral_2","time_neutral_3","time_new_adaptive_init","time_new_calibration_light","time_new_logger","time_new_lsl_start_1","time_new_lsl_stop","time_new_sketchpad","time_new_sketchpad_1","time_new_sketchpad_2","time_sig1","time_sig2","time_sig3","time_sound_generation","time_stimulus","time_tracking","time_trial","time_trial_loop","title","uniform_coordinates","width"
"<opensesame_plugins.lsl_start.liblsl.LSL_session object at 0x000001E59BB13CC0>","1","black","[0.0, 0.0]","legacy","0","uniform","0","0","0","0","0","0","0","0","0","0","NA","0","NA","0","0","0","0","0","0","0","0","NA","0","0","0","Wed Nov 17 22:08:42 2021","-6","The main experiment item","yes","experiment.osexp","C:/Users/elus/Demant/+Team OMEXP - Article/ISAAR 2021/Data/experiments","no","mono","no","18","no","white","no","Next","400","no","768","0","0","0","C:/Users/elus/Documents/RecordingLSL_maybefinal/subject-7.csv","5","[<opensesame_plugins.lsl_start.liblsl.LSL_session object at 0x000001E59BB13CC0>]","Kafkaesque Koffka","3.2.7","1","0","2","1024","2","48000","-16","experiment","0","7","odd","NA","10099","10130","NA","5583","15225","12220","13222","14224","NA","NA","15225","NA","NA","10131","8099","11213","12721","13723","14725","11180","12213","NA","11180","11132","New experiment","yes","1024"
"<opensesame_plugins.lsl_start.liblsl.LSL_session object at 0x000001E59BB13CC0>","1","black","[0.0, 0.0]","legacy","0","uniform","1","0","0","0","0","1","1","1","1","0","NA","1","NA","0","0","0","1","1","1","1","1","NA","1","1","0","Wed Nov 17 22:08:42 2021","-6","The main experiment item","yes","experiment.osexp","C:/Users/elus/Demant/+Team OMEXP - Article/ISAAR 2021/Data/experiments","no","mono","no","18","no","white","no","Next","400","no","768","1","0","1","C:/Users/elus/Documents/RecordingLSL_maybefinal/subject-7.csv","5","[<opensesame_plugins.lsl_start.liblsl.LSL_session object at 0x000001E59BB13CC0>]","Kafkaesque Koffka","3.2.7","2","0","2","1024","2","48000","-16","experiment","0","7","odd","NA","10099","10130","NA","5583","19361","16356","17358","18360","NA","NA","19361","NA","NA","10131","8099","15343","16857","17859","18861","15314","16343","15235","15314","11132","New experiment","yes","1024"
"<opensesame_plugins.lsl_start.liblsl.LSL_session object at 0x000001E59BB13CC0>","1","black","[0.0, 0.0]","legacy","0","uniform","2","0","0","0","0","2","2","2","2","0","NA","2","NA","0","0","0","2","2","2","2","2","NA","2","2","0","Wed Nov 17 22:08:42 2021","-6","The main experiment item","yes","experiment.osexp","C:/Users/elus/Demant/+Team OMEXP - Article/ISAAR 2021/Data/experiments","no","mono","no","18","no","white","no","Next","400","no","768","2","0","2","C:/Users/elus/Documents/RecordingLSL_maybefinal/subject-7.csv","5","[<opensesame_plugins.lsl_start.liblsl.LSL_session object at 0x000001E59BB13CC0>]","Kafkaesque Koffka","3.2.7","3","0","2","1024","2","48000","-16","experiment","0","7","odd","NA","10099","10130","NA","5583","23491","20486","21488","22490","NA","NA","23491","NA","NA","10131","8099","19470","20987","21989","22991","19444","20470","19363","19444","11132","New experiment","yes","1024"
"<opensesame_plugins.lsl_start.liblsl.LSL_session object at 0x000001E59BB13CC0>","1","black","[0.0, 0.0]","legacy","0","uniform","3","0","0","0","0","3","3","3","3","0","NA","3","NA","0","0","0","3","3","3","3","3","NA","3","3","0","Wed Nov 17 22:08:42 2021","-7","The main experiment item","yes","experiment.osexp","C:/Users/elus/Demant/+Team OMEXP - Article/ISAAR 2021/Data/experiments","no","mono","no","18","no","white","no","Next","400","no","768","3","0","3","C:/Users/elus/Documents/RecordingLSL_maybefinal/subject-7.csv","5","[<opensesame_plugins.lsl_start.liblsl.LSL_session object at 0x000001E59BB13CC0>]","Kafkaesque Koffka","3.2.7","1","0","2","1024","2","48000","-16","experiment","0","7","odd","NA","10099","10130","NA","5583","27641","24636","25638","26640","NA","NA","27641","NA","NA","10131","8099","23622","25137","26139","27141","23590","24622","23493","23590","11132","New experiment","yes","1024"
"<opensesame_plugins.lsl_start.liblsl.LSL_session object at 0x000001E59BB13CC0>","0","black","[0.0, 0.0]","legacy","0","uniform","4","0","0","0","0","4","4","4","4","0","NA","4","NA","0","0","0","4","4","4","4","4","NA","4","4","0","Wed Nov 17 22:08:42 2021","-7","The main experiment item","yes","experiment.osexp","C:/Users/elus/Demant/+Team OMEXP - Article/ISAAR 2021/Data/experiments","no","mono","no","18","no","white","no","Next","400","no","768","4","0","4","C:/Users/elus/Documents/RecordingLSL_maybefinal/subject-7.csv","5","[<opensesame_plugins.lsl_start.liblsl.LSL_session object at 0x000001E59BB13CC0>]","Kafkaesque Koffka","3.2.7","2","0","2","1024","2","48000","-16","experiment","0","7","odd","NA","10099","10130","NA","5583","31771","28766","29768","30770","NA","NA","31771","NA","NA","10131","8099","27750","29267","30269","31271","27720","28750","27643","27720","11132","New experiment","yes","1024"
"<opensesame_plugins.lsl_start.liblsl.LSL_session object at 0x000001E59BB13CC0>","1","black","[0.0, 0.0]","legacy","0","uniform","5","0","0","0","0","5","5","5","5","0","NA","5","NA","0","0","0","5","5","5","5","5","NA","5","5","0","Wed Nov 17 22:08:42 2021","-6.5","The main experiment item","yes","experiment.osexp","C:/Users/elus/Demant/+Team OMEXP - Article/ISAAR 2021/Data/experiments","no","mono","no","18","no","white","no","Next","400","no","768","5","0","5","C:/Users/elus/Documents/RecordingLSL_maybefinal/subject-7.csv","5","[<opensesame_plugins.lsl_start.liblsl.LSL_session object at 0x000001E59BB13CC0>]","Kafkaesque Koffka","3.2.7","3","0","2","1024","2","48000","-16","experiment","0","7","odd","NA","10099","10130","NA","5583","35910","32905","33907","34909","NA","NA","35910","NA","NA","10131","8099","31896","33406","34408","35410","31866","32896","31773","31866","11132","New experiment","yes","1024"
"<opensesame_plugins.lsl_start.liblsl.LSL_session object at 0x000001E59BB13CC0>","1","black","[0.0, 0.0]","legacy","0","uniform","6","0","0","0","0","6","6","6","6","0","NA","6","NA","0","0","0","6","6","6","6","6","NA","6","6","0","Wed Nov 17 22:08:42 2021","-6.5","The main experiment item","yes","experiment.osexp","C:/Users/elus/Demant/+Team OMEXP - Article/ISAAR 2021/Data/experiments","no","mono","no","18","no","white","no","Next","400","no","768","6","0","6","C:/Users/elus/Documents/RecordingLSL_maybefinal/subject-7.csv","5","[<opensesame_plugins.lsl_start.liblsl.LSL_session object at 0x000001E59BB13CC0>]","Kafkaesque Koffka","3.2.7","1","0","2","1024","2","48000","-16","experiment","0","7","odd","NA","10099","10130","NA","5583","40034","37029","38031","39033","NA","NA","40034","NA","NA","10131","8099","36019","37530","38532","39534","35992","37019","35912","35992","11132","New experiment","yes","1024"
"<opensesame_plugins.lsl_start.liblsl.LSL_session object at 0x000001E59BB13CC0>","1","black","[0.0, 0.0]","legacy","0","uniform","7","0","0","0","0","7","7","7","7","0","NA","7","NA","0","0","0","7","7","7","7","7","NA","7","7","0","Wed Nov 17 22:08:42 2021","-6.5","The main experiment item","yes","experiment.osexp","C:/Users/elus/Demant/+Team OMEXP - Article/ISAAR 2021/Data/experiments","no","mono","no","18","no","white","no","Next","400","no","768","7","0","7","C:/Users/elus/Documents/RecordingLSL_maybefinal/subject-7.csv","5","[<opensesame_plugins.lsl_start.liblsl.LSL_session object at 0x000001E59BB13CC0>]","Kafkaesque Koffka","3.2.7","2","0","2","1024","2","48000","-16","experiment","0","7","odd","NA","10099","10130","NA","5583","44171","41166","42168","43170","NA","NA","44171","NA","NA","10131","8099","40148","41667","42669","43671","40118","41148","40036","40118","11132","New experiment","yes","1024"
"<opensesame_plugins.lsl_start.liblsl.LSL_session object at 0x000001E59BB13CC0>","1","black","[0.0, 0.0]","legacy","0","uniform","8","0","0","0","0","8","8","8","8","0","NA","8","NA","0","0","0","8","8","8","8","8","NA","8","8","0","Wed Nov 17 22:08:42 2021","-7","The main experiment item","yes","experiment.osexp","C:/Users/elus/Demant/+Team OMEXP - Article/ISAAR 2021/Data/experiments","no","mono","no","18","no","white","no","Next","400","no","768","8","0","8","C:/Users/elus/Documents/RecordingLSL_maybefinal/subject-7.csv","5","[<opensesame_plugins.lsl_start.liblsl.LSL_session object at 0x000001E59BB13CC0>]","Kafkaesque Koffka","3.2.7","3","0","2","1024","2","48000","-16","experiment","0","7","odd","NA","10099","10130","NA","5583","48293","45288","46290","47292","NA","NA","48293","NA","NA","10131","8099","44278","45789","46791","47793","44252","45279","44173","44252","11132","New experiment","yes","1024"
"<opensesame_plugins.lsl_start.liblsl.LSL_session object at 0x000001E59BB13CC0>","1","black","[0.0, 0.0]","legacy","0","uniform","9","0","0","0","0","9","9","9","9","0","NA","9","NA","0","0","0","9","9","9","9","9","NA","9","9","0","Wed Nov 17 22:08:42 2021","-7","The main experiment item","yes","experiment.osexp","C:/Users/elus/Demant/+Team OMEXP - Article/ISAAR 2021/Data/experiments","no","mono","no","18","no","white","no","Next","400","no","768","9","0","9","C:/Users/elus/Documents/RecordingLSL_maybefinal/subject-7.csv","5","[<opensesame_plugins.lsl_start.liblsl.LSL_session object at 0x000001E59BB13CC0>]","Kafkaesque Koffka","3.2.7","1","0","2","1024","2","48000","-16","experiment","0","7","odd","NA","10099","10130","NA","5583","52422","49417","50419","51421","NA","NA","52422","NA","NA","10131","8099","48401","49918","50920","51922","48373","49401","48295","48373","11132","New experiment","yes","1024"
"<opensesame_plugins.lsl_start.liblsl.LSL_session object at 0x000001E59BB13CC0>","1","black","[0.0, 0.0]","legacy","0","uniform","10","0","0","0","0","10","10","10","10","0","NA","10","NA","0","0","0","10","10","10","10","10","NA","10","10","0","Wed Nov 17 22:08:42 2021","-7","The main experiment item","yes","experiment.osexp","C:/Users/elus/Demant/+Team OMEXP - Article/ISAAR 2021/Data/experiments","no","mono","no","18","no","white","no","Next","400","no","768","10","0","10","C:/Users/elus/Documents/RecordingLSL_maybefinal/subject-7.csv","5","[<opensesame_plugins.lsl_start.liblsl.LSL_session object at 0x000001E59BB13CC0>]","Kafkaesque Koffka","3.2.7","2","0","2","1024","2","48000","-16","experiment","0","7","odd","NA","10099","10130","NA","5583","56550","53546","54548","55549","NA","NA","56550","NA","NA","10131","8099","52532","54047","55048","56050","52505","53532","52426","52505","11132","New experiment","yes","1024"
"<opensesame_plugins.lsl_start.liblsl.LSL_session object at 0x000001E59BB13CC0>","0","black","[0.0, 0.0]","legacy","0","uniform","11","0","0","0","0","11","11","11","11","0","NA","11","NA","0","0","0","11","11","11","11","11","NA","11","11","0","Wed Nov 17 22:08:42 2021","-7.5","The main experiment item","yes","experiment.osexp","C:/Users/elus/Demant/+Team OMEXP - Article/ISAAR 2021/Data/experiments","no","mono","no","18","no","white","no","Next","400","no","768","11","0","11","C:/Users/elus/Documents/RecordingLSL_maybefinal/subject-7.csv","5","[<opensesame_plugins.lsl_start.liblsl.LSL_session object at 0x000001E59BB13CC0>]","Kafkaesque Koffka","3.2.7","3","0","2","1024","2","48000","-16","experiment","0","7","odd","NA","10099","10130","NA","5583","60671","57666","58668","59670","NA","NA","60671","NA","NA","10131","8099","56658","58167","59169","60171","56631","57658","56552","56631","11132","New experiment","yes","1024"
"<opensesame_plugins.lsl_start.liblsl.LSL_session object at 0x000001E59BB13CC0>","1","black","[0.0, 0.0]","legacy","0","uniform","12","0","0","0","0","12","12","12","12","0","NA","12","NA","0","0","0","12","12","12","12","12","NA","12","12","0","Wed Nov 17 22:08:42 2021","-7","The main experiment item","yes","experiment.osexp","C:/Users/elus/Demant/+Team OMEXP - Article/ISAAR 2021/Data/experiments","no","mono","no","18","no","white","no","Next","400","no","768","12","0","12","C:/Users/elus/Documents/RecordingLSL_maybefinal/subject-7.csv","5","[<opensesame_plugins.lsl_start.liblsl.LSL_session object at 0x000001E59BB13CC0>]","Kafkaesque Koffka","3.2.7","1","0","2","1024","2","48000","-16","experiment","0","7","odd","NA","10099","10130","NA","5583","64794","61789","62791","63793","NA","NA","64794","NA","NA","10131","8099","60779","62290","63292","64294","60750","61779","60673","60750","11132","New experiment","yes","1024"
"<opensesame_plugins.lsl_start.liblsl.LSL_session object at 0x000001E59BB13CC0>","1","black","[0.0, 0.0]","legacy","0","uniform","13","0","0","0","0","13","13","13","13","0","NA","13","NA","0","0","0","13","13","13","13","13","NA","13","13","0","Wed Nov 17 22:08:42 2021","-7","The main experiment item","yes","experiment.osexp","C:/Users/elus/Demant/+Team OMEXP - Article/ISAAR 2021/Data/experiments","no","mono","no","18","no","white","no","Next","400","no","768","13","0","13","C:/Users/elus/Documents/RecordingLSL_maybefinal/subject-7.csv","5","[<opensesame_plugins.lsl_start.liblsl.LSL_session object at 0x000001E59BB13CC0>]","Kafkaesque Koffka","3.2.7","2","0","2","1024","2","48000","-16","experiment","0","7","odd","NA","10099","10130","NA","5583","68921","65916","66918","67920","NA","NA","68921","NA","NA","10131","8099","64902","66417","67419","68421","64875","65902","64797","64875","11132","New experiment","yes","1024"
"<opensesame_plugins.lsl_start.liblsl.LSL_session object at 0x000001E59BB13CC0>","1","black","[0.0, 0.0]","legacy","0","uniform","14","0","0","0","0","14","14","14","14","0","NA","14","NA","0","0","0","14","14","14","14","14","NA","14","14","0","Wed Nov 17 22:08:42 2021","-7","The main experiment item","yes","experiment.osexp","C:/Users/elus/Demant/+Team OMEXP - Article/ISAAR 2021/Data/experiments","no","mono","no","18","no","white","no","Next","400","no","768","14","0","14","C:/Users/elus/Documents/RecordingLSL_maybefinal/subject-7.csv","5","[<opensesame_plugins.lsl_start.liblsl.LSL_session object at 0x000001E59BB13CC0>]","Kafkaesque Koffka","3.2.7","3","0","2","1024","2","48000","-16","experiment","0","7","odd","NA","10099","10130","NA","5583","73044","70038","71040","72042","NA","NA","73044","NA","NA","10131","8099","69029","70539","71541","72544","69001","70029","68923","69001","11132","New experiment","yes","1024"
"<opensesame_plugins.lsl_start.liblsl.LSL_session object at 0x000001E59BB13CC0>","0","black","[0.0, 0.0]","legacy","0","uniform","15","0","0","0","0","15","15","15","15","0","NA","15","NA","0","0","0","15","15","15","15","15","NA","15","15","0","Wed Nov 17 22:08:42 2021","-7.5","The main experiment item","yes","experiment.osexp","C:/Users/elus/Demant/+Team OMEXP - Article/ISAAR 2021/Data/experiments","no","mono","no","18","no","white","no","Next","400","no","768","15","0","15","C:/Users/elus/Documents/RecordingLSL_maybefinal/subject-7.csv","5","[<opensesame_plugins.lsl_start.liblsl.LSL_session object at 0x000001E59BB13CC0>]","Kafkaesque Koffka","3.2.7","1","0","2","1024","2","48000","-16","experiment","0","7","odd","NA","10099","10130","NA","5583","77176","74166","75172","76174","NA","NA","77176","NA","NA","10131","8099","73151","74671","75673","76676","73123","74151","73046","73123","11132","New experiment","yes","1024"
"<opensesame_plugins.lsl_start.liblsl.LSL_session object at 0x000001E59BB13CC0>","1","black","[0.0, 0.0]","legacy","0","uniform","16","0","0","0","0","16","16","16","16","0","NA","16","NA","0","0","0","16","16","16","16","16","NA","16","16","0","Wed Nov 17 22:08:42 2021","-7","The main experiment item","yes","experiment.osexp","C:/Users/elus/Demant/+Team OMEXP - Article/ISAAR 2021/Data/experiments","no","mono","no","18","no","white","no","Next","400","no","768","16","0","16","C:/Users/elus/Documents/RecordingLSL_maybefinal/subject-7.csv","5","[<opensesame_plugins.lsl_start.liblsl.LSL_session object at 0x000001E59BB13CC0>]","Kafkaesque Koffka","3.2.7","2","0","2","1024","2","48000","-16","experiment","0","7","odd","NA","10099","10130","NA","5583","81303","78296","79300","80302","NA","NA","81303","NA","NA","10131","8099","77286","78799","79801","80803","77257","78286","77178","77257","11132","New experiment","yes","1024"
"<opensesame_plugins.lsl_start.liblsl.LSL_session object at 0x000001E59BB13CC0>","0","black","[0.0, 0.0]","legacy","0","uniform","17","0","0","0","0","17","17","17","17","0","NA","17","NA","0","0","0","17","17","17","17","17","NA","17","17","0","Wed Nov 17 22:08:42 2021","-7","The main experiment item","yes","experiment.osexp","C:/Users/elus/Demant/+Team OMEXP - Article/ISAAR 2021/Data/experiments","no","mono","no","18","no","white","no","Next","400","no","768","17","0","17","C:/Users/elus/Documents/RecordingLSL_maybefinal/subject-7.csv","5","[<opensesame_plugins.lsl_start.liblsl.LSL_session object at 0x000001E59BB13CC0>]","Kafkaesque Koffka","3.2.7","3","0","2","1024","2","48000","-16","experiment","0","7","odd","NA","10099","10130","NA","5583","85430","82426","83427","84429","NA","NA","85430","NA","NA","10131","8099","81411","82927","83928","84930","81385","82411","81305","81385","11132","New experiment","yes","1024"
"<opensesame_plugins.lsl_start.liblsl.LSL_session object at 0x000001E59BB13CC0>","1","black","[0.0, 0.0]","legacy","0","uniform","18","0","0","0","0","18","18","18","18","0","NA","18","NA","0","0","0","18","18","18","18","18","NA","18","18","0","Wed Nov 17 22:08:42 2021","-6.5","The main experiment item","yes","experiment.osexp","C:/Users/elus/Demant/+Team OMEXP - Article/ISAAR 2021/Data/experiments","no","mono","no","18","no","white","no","Next","400","no","768","18","0","18","C:/Users/elus/Documents/RecordingLSL_maybefinal/subject-7.csv","5","[<opensesame_plugins.lsl_start.liblsl.LSL_session object at 0x000001E59BB13CC0>]","Kafkaesque Koffka","3.2.7","1","0","2","1024","2","48000","-16","experiment","0","7","odd","NA","10099","10130","NA","5583","89560","86555","87557","88559","NA","NA","89560","NA","NA","10131","8099","85545","87056","88058","89060","85518","86545","85439","85518","11132","New experiment","yes","1024"
"<opensesame_plugins.lsl_start.liblsl.LSL_session object at 0x000001E59BB13CC0>","1","black","[0.0, 0.0]","legacy","0","uniform","19","0","0","0","0","19","19","19","19","0","NA","19","NA","0","0","0","19","19","19","19","19","NA","19","19","0","Wed Nov 17 22:08:42 2021","-6.5","The main experiment item","yes","experiment.osexp","C:/Users/elus/Demant/+Team OMEXP - Article/ISAAR 2021/Data/experiments","no","mono","no","18","no","white","no","Next","400","no","768","19","0","19","C:/Users/elus/Documents/RecordingLSL_maybefinal/subject-7.csv","5","[<opensesame_plugins.lsl_start.liblsl.LSL_session object at 0x000001E59BB13CC0>]","Kafkaesque Koffka","3.2.7","2","0","2","1024","2","48000","-16","experiment","0","7","odd","NA","10099","10130","NA","5583","93680","90675","91677","92679","NA","NA","93680","NA","NA","10131","8099","89665","91176","92178","93180","89640","90665","89562","89640","11132","New experiment","yes","1024"
"<opensesame_plugins.lsl_start.liblsl.LSL_session object at 0x000001E59BB13CC0>","0","black","[0.0, 0.0]","legacy","0","uniform","20","0","0","0","0","20","20","20","20","0","NA","20","NA","0","0","0","20","20","20","20","20","NA","20","20","0","Wed Nov 17 22:08:42 2021","-6.5","The main experiment item","yes","experiment.osexp","C:/Users/elus/Demant/+Team OMEXP - Article/ISAAR 2021/Data/experiments","no","mono","no","18","no","white","no","Next","400","no","768","20","0","20","C:/Users/elus/Documents/RecordingLSL_maybefinal/subject-7.csv","5","[<opensesame_plugins.lsl_start.liblsl.LSL_session object at 0x000001E59BB13CC0>]","Kafkaesque Koffka","3.2.7","3","0","2","1024","2","48000","-16","experiment","0","7","odd","NA","10099","10130","NA","5583","97810","94805","95807","96809","NA","NA","97810","NA","NA","10131","8099","93788","95306","96308","97310","93762","94788","93682","93762","11132","New experiment","yes","1024"
"<opensesame_plugins.lsl_start.liblsl.LSL_session object at 0x000001E59BB13CC0>","1","black","[0.0, 0.0]","legacy","0","uniform","21","0","0","0","0","21","21","21","21","0","NA","21","NA","0","0","0","21","21","21","21","21","NA","21","21","0","Wed Nov 17 22:08:42 2021","-6","The main experiment item","yes","experiment.osexp","C:/Users/elus/Demant/+Team OMEXP - Article/ISAAR 2021/Data/experiments","no","mono","no","18","no","white","no","Next","400","no","768","21","0","21","C:/Users/elus/Documents/RecordingLSL_maybefinal/subject-7.csv","5","[<opensesame_plugins.lsl_start.liblsl.LSL_session object at 0x000001E59BB13CC0>]","Kafkaesque Koffka","3.2.7","1","0","2","1024","2","48000","-16","experiment","0","7","odd","NA","10099","10130","NA","5583","101941","98936","99938","100940","NA","NA","101941","NA","NA","10131","8099","97925","99437","100439","101441","97896","98925","97812","97896","11132","New experiment","yes","1024"
"<opensesame_plugins.lsl_start.liblsl.LSL_session object at 0x000001E59BB13CC0>","1","black","[0.0, 0.0]","legacy","0","uniform","22","0","0","0","0","22","22","22","22","0","NA","22","NA","0","0","0","22","22","22","22","22","NA","22","22","0","Wed Nov 17 22:08:42 2021","-6","The main experiment item","yes","experiment.osexp","C:/Users/elus/Demant/+Team OMEXP - Article/ISAAR 2021/Data/experiments","no","mono","no","18","no","white","no","Next","400","no","768","22","0","22","C:/Users/elus/Documents/RecordingLSL_maybefinal/subject-7.csv","5","[<opensesame_plugins.lsl_start.liblsl.LSL_session object at 0x000001E59BB13CC0>]","Kafkaesque Koffka","3.2.7","2","0","2","1024","2","48000","-16","experiment","0","7","odd","NA","10099","10130","NA","5583","106072","103065","104068","105071","NA","NA","106072","NA","NA","10131","8099","102049","103566","104570","105572","102022","103049","101943","102022","11132","New experiment","yes","1024"
"<opensesame_plugins.lsl_start.liblsl.LSL_session object at 0x000001E59BB13CC0>","0","black","[0.0, 0.0]","legacy","0","uniform","23","0","0","0","0","23","23","23","23","0","NA","23","NA","0","0","0","23","23","23","23","23","NA","23","23","0","Wed Nov 17 22:08:42 2021","-6","The main experiment item","yes","experiment.osexp","C:/Users/elus/Demant/+Team OMEXP - Article/ISAAR 2021/Data/experiments","no","mono","no","18","no","white","no","Next","400","no","768","23","0","23","C:/Users/elus/Documents/RecordingLSL_maybefinal/subject-7.csv","5","[<opensesame_plugins.lsl_start.liblsl.LSL_session object at 0x000001E59BB13CC0>]","Kafkaesque Koffka","3.2.7","3","0","2","1024","2","48000","-16","experiment","0","7","odd","NA","10099","10130","NA","5583","110194","107186","108191","109193","NA","NA","110194","NA","NA","10131","8099","106177","107690","108692","109694","106152","107177","106074","106152","11132","New experiment","yes","1024"
"<opensesame_plugins.lsl_start.liblsl.LSL_session object at 0x000001E59BB13CC0>","1","black","[0.0, 0.0]","legacy","0","uniform","24","0","0","0","0","24","24","24","24","0","NA","24","NA","0","0","0","24","24","24","24","24","NA","24","24","0","Wed Nov 17 22:08:42 2021","-5.5","The main experiment item","yes","experiment.osexp","C:/Users/elus/Demant/+Team OMEXP - Article/ISAAR 2021/Data/experiments","no","mono","no","18","no","white","no","Next","400","no","768","24","0","24","C:/Users/elus/Documents/RecordingLSL_maybefinal/subject-7.csv","5","[<opensesame_plugins.lsl_start.liblsl.LSL_session object at 0x000001E59BB13CC0>]","Kafkaesque Koffka","3.2.7","1","0","2","1024","2","48000","-16","experiment","0","7","odd","NA","10099","10130","NA","5583","114323","111315","112320","113322","NA","NA","114323","NA","NA","10131","8099","110301","111819","112821","113823","110274","111301","110196","110274","11132","New experiment","yes","1024"
"<opensesame_plugins.lsl_start.liblsl.LSL_session object at 0x000001E59BB13CC0>","1","black","[0.0, 0.0]","legacy","0","uniform","25","0","0","0","0","25","25","25","25","0","NA","25","NA","0","0","0","25","25","25","25","25","NA","25","25","0","Wed Nov 17 22:08:42 2021","-5.5","The main experiment item","yes","experiment.osexp","C:/Users/elus/Demant/+Team OMEXP - Article/ISAAR 2021/Data/experiments","no","mono","no","18","no","white","no","Next","400","no","768","25","0","25","C:/Users/elus/Documents/RecordingLSL_maybefinal/subject-7.csv","5","[<opensesame_plugins.lsl_start.liblsl.LSL_session object at 0x000001E59BB13CC0>]","Kafkaesque Koffka","3.2.7","2","0","2","1024","2","48000","-16","experiment","0","7","odd","NA","10099","10130","NA","5583","118452","115438","116450","117452","NA","NA","118452","NA","NA","10131","8099","114429","115949","116951","117952","114403","115429","114325","114403","11132","New experiment","yes","1024"
"<opensesame_plugins.lsl_start.liblsl.LSL_session object at 0x000001E59BB13CC0>","1","black","[0.0, 0.0]","legacy","0","uniform","26","0","0","0","0","26","26","26","26","0","NA","26","NA","0","0","0","26","26","26","26","26","NA","26","26","0","Wed Nov 17 22:08:42 2021","-5.5","The main experiment item","yes","experiment.osexp","C:/Users/elus/Demant/+Team OMEXP - Article/ISAAR 2021/Data/experiments","no","mono","no","18","no","white","no","Next","400","no","768","26","0","26","C:/Users/elus/Documents/RecordingLSL_maybefinal/subject-7.csv","5","[<opensesame_plugins.lsl_start.liblsl.LSL_session object at 0x000001E59BB13CC0>]","Kafkaesque Koffka","3.2.7","3","0","2","1024","2","48000","-16","experiment","0","7","odd","NA","10099","10130","NA","5583","122581","119576","120578","121580","NA","NA","122581","NA","NA","10131","8099","118559","120077","121079","122081","118533","119559","118454","118533","11132","New experiment","yes","1024"
"<opensesame_plugins.lsl_start.liblsl.LSL_session object at 0x000001E59BB13CC0>","1","black","[0.0, 0.0]","legacy","0","uniform","27","0","0","0","0","27","27","27","27","0","NA","27","NA","0","0","0","27","27","27","27","27","NA","27","27","0","Wed Nov 17 22:08:42 2021","-6","The main experiment item","yes","experiment.osexp","C:/Users/elus/Demant/+Team OMEXP - Article/ISAAR 2021/Data/experiments","no","mono","no","18","no","white","no","Next","400","no","768","27","0","27","C:/Users/elus/Documents/RecordingLSL_maybefinal/subject-7.csv","5","[<opensesame_plugins.lsl_start.liblsl.LSL_session object at 0x000001E59BB13CC0>]","Kafkaesque Koffka","3.2.7","1","0","2","1024","2","48000","-16","experiment","0","7","odd","NA","10099","10130","NA","5583","126707","123697","124703","125705","NA","NA","126707","NA","NA","10131","8099","122687","124202","125204","126206","122661","123687","122583","122661","11132","New experiment","yes","1024"
"<opensesame_plugins.lsl_start.liblsl.LSL_session object at 0x000001E59BB13CC0>","1","black","[0.0, 0.0]","legacy","0","uniform","28","0","0","0","0","28","28","28","28","0","NA","28","NA","0","0","0","28","28","28","28","28","NA","28","28","0","Wed Nov 17 22:08:42 2021","-6","The main experiment item","yes","experiment.osexp","C:/Users/elus/Demant/+Team OMEXP - Article/ISAAR 2021/Data/experiments","no","mono","no","18","no","white","no","Next","400","no","768","28","0","28","C:/Users/elus/Documents/RecordingLSL_maybefinal/subject-7.csv","5","[<opensesame_plugins.lsl_start.liblsl.LSL_session object at 0x000001E59BB13CC0>]","Kafkaesque Koffka","3.2.7","2","0","2","1024","2","48000","-16","experiment","0","7","odd","NA","10099","10130","NA","5583","130837","127826","128833","129836","NA","NA","130837","NA","NA","10131","8099","126816","128332","129334","130337","126787","127816","126709","126787","11132","New experiment","yes","1024"
"<opensesame_plugins.lsl_start.liblsl.LSL_session object at 0x000001E59BB13CC0>","1","black","[0.0, 0.0]","legacy","0","uniform","29","0","0","0","0","29","29","29","29","0","NA","29","NA","0","0","0","29","29","29","29","29","NA","29","29","0","Wed Nov 17 22:08:42 2021","-6","The main experiment item","yes","experiment.osexp","C:/Users/elus/Demant/+Team OMEXP - Article/ISAAR 2021/Data/experiments","no","mono","no","18","no","white","no","Next","400","no","768","29","0","29","C:/Users/elus/Documents/RecordingLSL_maybefinal/subject-7.csv","5","[<opensesame_plugins.lsl_start.liblsl.LSL_session object at 0x000001E59BB13CC0>]","Kafkaesque Koffka","3.2.7","3","0","2","1024","2","48000","-16","experiment","0","7","odd","NA","10099","10130","NA","5583","134966","131956","132963","133965","NA","NA","134966","NA","NA","10131","8099","130946","132462","133464","134466","130918","131946","130839","130918","11132","New experiment","yes","1024"
"<opensesame_plugins.lsl_start.liblsl.LSL_session object at 0x000001E59BB13CC0>","1","black","[0.0, 0.0]","legacy","0","uniform","30","0","0","0","0","30","30","30","30","0","NA","30","NA","0","0","0","30","30","30","30","30","NA","30","30","0","Wed Nov 17 22:08:42 2021","-6.5","The main experiment item","yes","experiment.osexp","C:/Users/elus/Demant/+Team OMEXP - Article/ISAAR 2021/Data/experiments","no","mono","no","18","no","white","no","Next","400","no","768","30","0","30","C:/Users/elus/Documents/RecordingLSL_maybefinal/subject-7.csv","5","[<opensesame_plugins.lsl_start.liblsl.LSL_session object at 0x000001E59BB13CC0>]","Kafkaesque Koffka","3.2.7","1","0","2","1024","2","48000","-16","experiment","0","7","odd","NA","10099","10130","NA","5583","139093","136086","137089","138091","NA","NA","139093","NA","NA","10131","8099","135075","136588","137590","138593","135047","136075","134969","135047","11132","New experiment","yes","1024"
"<opensesame_plugins.lsl_start.liblsl.LSL_session object at 0x000001E59BB13CC0>","1","black","[0.0, 0.0]","legacy","0","uniform","31","0","0","0","0","31","31","31","31","0","NA","31","NA","0","0","0","31","31","31","31","31","NA","31","31","0","Wed Nov 17 22:08:42 2021","-6.5","The main experiment item","yes","experiment.osexp","C:/Users/elus/Demant/+Team OMEXP - Article/ISAAR 2021/Data/experiments","no","mono","no","18","no","white","no","Next","400","no","768","31","0","31","C:/Users/elus/Documents/RecordingLSL_maybefinal/subject-7.csv","5","[<opensesame_plugins.lsl_start.liblsl.LSL_session object at 0x000001E59BB13CC0>]","Kafkaesque Koffka","3.2.7","2","0","2","1024","2","48000","-16","experiment","0","7","odd","NA","10099","10130","NA","5583","143220","140215","141217","142219","NA","NA","143220","NA","NA","10131","8099","139201","140716","141718","142720","139172","140201","139095","139172","11132","New experiment","yes","1024"
"<opensesame_plugins.lsl_start.liblsl.LSL_session object at 0x000001E59BB13CC0>","1","black","[0.0, 0.0]","legacy","0","uniform","32","0","0","0","0","32","32","32","32","0","NA","32","NA","0","0","0","32","32","32","32","32","NA","32","32","0","Wed Nov 17 22:08:42 2021","-6.5","The main experiment item","yes","experiment.osexp","C:/Users/elus/Demant/+Team OMEXP - Article/ISAAR 2021/Data/experiments","no","mono","no","18","no","white","no","Next","400","no","768","32","0","32","C:/Users/elus/Documents/RecordingLSL_maybefinal/subject-7.csv","5","[<opensesame_plugins.lsl_start.liblsl.LSL_session object at 0x000001E59BB13CC0>]","Kafkaesque Koffka","3.2.7","3","0","2","1024","2","48000","-16","experiment","0","7","odd","NA","10099","10130","NA","5583","147351","144346","145348","146350","NA","NA","147351","NA","NA","10131","8099","143332","144847","145849","146851","143303","144333","143222","143302","11132","New experiment","yes","1024"
"<opensesame_plugins.lsl_start.liblsl.LSL_session object at 0x000001E59BB13CC0>","1","black","[0.0, 0.0]","legacy","0","uniform","33","0","0","0","0","33","33","33","33","0","NA","33","NA","0","0","0","33","33","33","33","33","NA","33","33","0","Wed Nov 17 22:08:42 2021","-7","The main experiment item","yes","experiment.osexp","C:/Users/elus/Demant/+Team OMEXP - Article/ISAAR 2021/Data/experiments","no","mono","no","18","no","white","no","Next","400","no","768","33","0","33","C:/Users/elus/Documents/RecordingLSL_maybefinal/subject-7.csv","5","[<opensesame_plugins.lsl_start.liblsl.LSL_session object at 0x000001E59BB13CC0>]","Kafkaesque Koffka","3.2.7","1","0","2","1024","2","48000","-16","experiment","0","7","odd","NA","10099","10130","NA","5583","151471","148466","149468","150470","NA","NA","151471","NA","NA","10131","8099","147458","148967","149969","150971","147431","148458","147353","147431","11132","New experiment","yes","1024"
"<opensesame_plugins.lsl_start.liblsl.LSL_session object at 0x000001E59BB13CC0>","1","black","[0.0, 0.0]","legacy","0","uniform","34","0","0","0","0","34","34","34","34","0","NA","34","NA","0","0","0","34","34","34","34","34","NA","34","34","0","Wed Nov 17 22:08:42 2021","-7","The main experiment item","yes","experiment.osexp","C:/Users/elus/Demant/+Team OMEXP - Article/ISAAR 2021/Data/experiments","no","mono","no","18","no","white","no","Next","400","no","768","34","0","34","C:/Users/elus/Documents/RecordingLSL_maybefinal/subject-7.csv","5","[<opensesame_plugins.lsl_start.liblsl.LSL_session object at 0x000001E59BB13CC0>]","Kafkaesque Koffka","3.2.7","2","0","2","1024","2","48000","-16","experiment","0","7","odd","NA","10099","10130","NA","5583","155601","152596","153598","154600","NA","NA","155601","NA","NA","10131","8099","151582","153097","154099","155101","151553","152582","151475","151553","11132","New experiment","yes","1024"
"<opensesame_plugins.lsl_start.liblsl.LSL_session object at 0x000001E59BB13CC0>","1","black","[0.0, 0.0]","legacy","0","uniform","35","0","0","0","0","35","35","35","35","0","NA","35","NA","0","0","0","35","35","35","35","35","NA","35","35","0","Wed Nov 17 22:08:42 2021","-7","The main experiment item","yes","experiment.osexp","C:/Users/elus/Demant/+Team OMEXP - Article/ISAAR 2021/Data/experiments","no","mono","no","18","no","white","no","Next","400","no","768","35","0","35","C:/Users/elus/Documents/RecordingLSL_maybefinal/subject-7.csv","5","[<opensesame_plugins.lsl_start.liblsl.LSL_session object at 0x000001E59BB13CC0>]","Kafkaesque Koffka","3.2.7","3","0","2","1024","2","48000","-16","experiment","0","7","odd","NA","10099","10130","NA","5583","159731","156725","157728","158730","NA","NA","159731","NA","NA","10131","8099","155713","157227","158229","159231","155688","156713","155609","155688","11132","New experiment","yes","1024"
"<opensesame_plugins.lsl_start.liblsl.LSL_session object at 0x000001E59BB13CC0>","0","black","[0.0, 0.0]","legacy","0","uniform","36","0","1","0","0","36","36","36","36","1","NA","36","NA","0","1","0","36","36","36","36","36","NA","36","36","1","Wed Nov 17 22:08:42 2021","-6","The main experiment item","yes","experiment.osexp","C:/Users/elus/Demant/+Team OMEXP - Article/ISAAR 2021/Data/experiments","no","mono","no","18","no","white","no","Next","1000","no","768","0","1","0","C:/Users/elus/Documents/RecordingLSL_maybefinal/subject-7.csv","5","[<opensesame_plugins.lsl_start.liblsl.LSL_session object at 0x000001E59BB13CC0>]","Kafkaesque Koffka","3.2.7","1","0","2","1024","2","48000","-16","experiment","0","7","odd","NA","10099","159831","NA","5583","164910","161905","162907","163909","NA","NA","164910","NA","NA","159833","8099","160897","162406","163408","164410","160876","161897","159740","160876","160833","New experiment","yes","1024"
"<opensesame_plugins.lsl_start.liblsl.LSL_session object at 0x000001E59BB13CC0>","1","black","[0.0, 0.0]","legacy","0","uniform","37","0","1","0","0","37","37","37","37","1","NA","37","NA","0","1","0","37","37","37","37","37","NA","37","37","1","Wed Nov 17 22:08:42 2021","-5","The main experiment item","yes","experiment.osexp","C:/Users/elus/Demant/+Team OMEXP - Article/ISAAR 2021/Data/experiments","no","mono","no","18","no","white","no","Next","1000","no","768","1","1","1","C:/Users/elus/Documents/RecordingLSL_maybefinal/subject-7.csv","5","[<opensesame_plugins.lsl_start.liblsl.LSL_session object at 0x000001E59BB13CC0>]","Kafkaesque Koffka","3.2.7","2","0","2","1024","2","48000","-16","experiment","0","7","odd","NA","10099","159831","NA","5583","169057","166046","167048","168054","NA","NA","169057","NA","NA","159833","8099","165031","166547","167553","168557","165002","166031","164912","165002","160833","New experiment","yes","1024"
"<opensesame_plugins.lsl_start.liblsl.LSL_session object at 0x000001E59BB13CC0>","1","black","[0.0, 0.0]","legacy","0","uniform","38","0","1","0","0","38","38","38","38","1","NA","38","NA","0","1","0","38","38","38","38","38","NA","38","38","1","Wed Nov 17 22:08:42 2021","-5","The main experiment item","yes","experiment.osexp","C:/Users/elus/Demant/+Team OMEXP - Article/ISAAR 2021/Data/experiments","no","mono","no","18","no","white","no","Next","1000","no","768","2","1","2","C:/Users/elus/Documents/RecordingLSL_maybefinal/subject-7.csv","5","[<opensesame_plugins.lsl_start.liblsl.LSL_session object at 0x000001E59BB13CC0>]","Kafkaesque Koffka","3.2.7","3","0","2","1024","2","48000","-16","experiment","0","7","odd","NA","10099","159831","NA","5583","173191","170186","171188","172190","NA","NA","173191","NA","NA","159833","8099","169172","170687","171689","172691","169145","170172","169065","169145","160833","New experiment","yes","1024"
"<opensesame_plugins.lsl_start.liblsl.LSL_session object at 0x000001E59BB13CC0>","1","black","[0.0, 0.0]","legacy","0","uniform","39","0","1","0","0","39","39","39","39","1","NA","39","NA","0","1","0","39","39","39","39","39","NA","39","39","1","Wed Nov 17 22:08:42 2021","-5","The main experiment item","yes","experiment.osexp","C:/Users/elus/Demant/+Team OMEXP - Article/ISAAR 2021/Data/experiments","no","mono","no","18","no","white","no","Next","1000","no","768","3","1","3","C:/Users/elus/Documents/RecordingLSL_maybefinal/subject-7.csv","5","[<opensesame_plugins.lsl_start.liblsl.LSL_session object at 0x000001E59BB13CC0>]","Kafkaesque Koffka","3.2.7","1","0","2","1024","2","48000","-16","experiment","0","7","odd","NA","10099","159831","NA","5583","177322","174316","175318","176321","NA","NA","177322","NA","NA","159833","8099","173301","174817","175819","176822","173274","174301","173193","173274","160833","New experiment","yes","1024"
"<opensesame_plugins.lsl_start.liblsl.LSL_session object at 0x000001E59BB13CC0>","1","black","[0.0, 0.0]","legacy","0","uniform","40","0","1","0","0","40","40","40","40","1","NA","40","NA","0","1","0","40","40","40","40","40","NA","40","40","1","Wed Nov 17 22:08:42 2021","-5.5","The main experiment item","yes","experiment.osexp","C:/Users/elus/Demant/+Team OMEXP - Article/ISAAR 2021/Data/experiments","no","mono","no","18","no","white","no","Next","1000","no","768","4","1","4","C:/Users/elus/Documents/RecordingLSL_maybefinal/subject-7.csv","5","[<opensesame_plugins.lsl_start.liblsl.LSL_session object at 0x000001E59BB13CC0>]","Kafkaesque Koffka","3.2.7","2","0","2","1024","2","48000","-16","experiment","0","7","odd","NA","10099","159831","NA","5583","181465","178455","179458","180459","NA","NA","181465","NA","NA","159833","8099","177441","178957","179958","180965","177411","178441","177324","177411","160833","New experiment","yes","1024"
"<opensesame_plugins.lsl_start.liblsl.LSL_session object at 0x000001E59BB13CC0>","1","black","[0.0, 0.0]","legacy","0","uniform","41","0","1","0","0","41","41","41","41","1","NA","41","NA","0","1","0","41","41","41","41","41","NA","41","41","1","Wed Nov 17 22:08:42 2021","-5.5","The main experiment item","yes","experiment.osexp","C:/Users/elus/Demant/+Team OMEXP - Article/ISAAR 2021/Data/experiments","no","mono","no","18","no","white","no","Next","1000","no","768","5","1","5","C:/Users/elus/Documents/RecordingLSL_maybefinal/subject-7.csv","5","[<opensesame_plugins.lsl_start.liblsl.LSL_session object at 0x000001E59BB13CC0>]","Kafkaesque Koffka","3.2.7","3","0","2","1024","2","48000","-16","experiment","0","7","odd","NA","10099","159831","NA","5583","185590","182585","183587","184589","NA","NA","185590","NA","NA","159833","8099","181576","183086","184088","185090","181546","182576","181467","181546","160833","New experiment","yes","1024"
"<opensesame_plugins.lsl_start.liblsl.LSL_session object at 0x000001E59BB13CC0>","1","black","[0.0, 0.0]","legacy","0","uniform","42","0","1","0","0","42","42","42","42","1","NA","42","NA","0","1","0","42","42","42","42","42","NA","42","42","1","Wed Nov 17 22:08:42 2021","-5.5","The main experiment item","yes","experiment.osexp","C:/Users/elus/Demant/+Team OMEXP - Article/ISAAR 2021/Data/experiments","no","mono","no","18","no","white","no","Next","1000","no","768","6","1","6","C:/Users/elus/Documents/RecordingLSL_maybefinal/subject-7.csv","5","[<opensesame_plugins.lsl_start.liblsl.LSL_session object at 0x000001E59BB13CC0>]","Kafkaesque Koffka","3.2.7","1","0","2","1024","2","48000","-16","experiment","0","7","odd","NA","10099","159831","NA","5583","189721","186716","187718","188720","NA","NA","189721","NA","NA","159833","8099","185701","187217","188219","189221","185674","186701","185592","185674","160833","New experiment","yes","1024"
"<opensesame_plugins.lsl_start.liblsl.LSL_session object at 0x000001E59BB13CC0>","0","black","[0.0, 0.0]","legacy","0","uniform","43","0","1","0","0","43","43","43","43","1","NA","43","NA","0","1","0","43","43","43","43","43","NA","43","43","1","Wed Nov 17 22:08:42 2021","-6","The main experiment item","yes","experiment.osexp","C:/Users/elus/Demant/+Team OMEXP - Article/ISAAR 2021/Data/experiments","no","mono","no","18","no","white","no","Next","1000","no","768","7","1","7","C:/Users/elus/Documents/RecordingLSL_maybefinal/subject-7.csv","5","[<opensesame_plugins.lsl_start.liblsl.LSL_session object at 0x000001E59BB13CC0>]","Kafkaesque Koffka","3.2.7","2","0","2","1024","2","48000","-16","experiment","0","7","odd","NA","10099","159831","NA","5583","193850","190845","191847","192849","NA","NA","193850","NA","NA","159833","8099","189829","191346","192348","193350","189801","190829","189723","189801","160833","New experiment","yes","1024"
"<opensesame_plugins.lsl_start.liblsl.LSL_session object at 0x000001E59BB13CC0>","1","black","[0.0, 0.0]","legacy","0","uniform","44","0","1","0","0","44","44","44","44","1","NA","44","NA","0","1","0","44","44","44","44","44","NA","44","44","1","Wed Nov 17 22:08:42 2021","-5.5","The main experiment item","yes","experiment.osexp","C:/Users/elus/Demant/+Team OMEXP - Article/ISAAR 2021/Data/experiments","no","mono","no","18","no","white","no","Next","1000","no","768","8","1","8","C:/Users/elus/Documents/RecordingLSL_maybefinal/subject-7.csv","5","[<opensesame_plugins.lsl_start.liblsl.LSL_session object at 0x000001E59BB13CC0>]","Kafkaesque Koffka","3.2.7","3","0","2","1024","2","48000","-16","experiment","0","7","odd","NA","10099","159831","NA","5583","197981","194976","195978","196980","NA","NA","197981","NA","NA","159833","8099","193958","195477","196479","197481","193932","194958","193852","193932","160833","New experiment","yes","1024"
"<opensesame_plugins.lsl_start.liblsl.LSL_session object at 0x000001E59BB13CC0>","1","black","[0.0, 0.0]","legacy","0","uniform","45","0","1","0","0","45","45","45","45","1","NA","45","NA","0","1","0","45","45","45","45","45","NA","45","45","1","Wed Nov 17 22:08:42 2021","-5.5","The main experiment item","yes","experiment.osexp","C:/Users/elus/Demant/+Team OMEXP - Article/ISAAR 2021/Data/experiments","no","mono","no","18","no","white","no","Next","1000","no","768","9","1","9","C:/Users/elus/Documents/RecordingLSL_maybefinal/subject-7.csv","5","[<opensesame_plugins.lsl_start.liblsl.LSL_session object at 0x000001E59BB13CC0>]","Kafkaesque Koffka","3.2.7","1","0","2","1024","2","48000","-16","experiment","0","7","odd","NA","10099","159831","NA","5583","202111","199106","200108","201110","NA","NA","202111","NA","NA","159833","8099","198096","199607","200609","201611","198066","199096","197983","198066","160833","New experiment","yes","1024"
"<opensesame_plugins.lsl_start.liblsl.LSL_session object at 0x000001E59BB13CC0>","1","black","[0.0, 0.0]","legacy","0","uniform","46","0","1","0","0","46","46","46","46","1","NA","46","NA","0","1","0","46","46","46","46","46","NA","46","46","1","Wed Nov 17 22:08:42 2021","-5.5","The main experiment item","yes","experiment.osexp","C:/Users/elus/Demant/+Team OMEXP - Article/ISAAR 2021/Data/experiments","no","mono","no","18","no","white","no","Next","1000","no","768","10","1","10","C:/Users/elus/Documents/RecordingLSL_maybefinal/subject-7.csv","5","[<opensesame_plugins.lsl_start.liblsl.LSL_session object at 0x000001E59BB13CC0>]","Kafkaesque Koffka","3.2.7","2","0","2","1024","2","48000","-16","experiment","0","7","odd","NA","10099","159831","NA","5583","206242","203236","204238","205240","NA","NA","206242","NA","NA","159833","8099","202222","203737","204739","205742","202196","203222","202118","202196","160833","New experiment","yes","1024"
"<opensesame_plugins.lsl_start.liblsl.LSL_session object at 0x000001E59BB13CC0>","1","black","[0.0, 0.0]","legacy","0","uniform","47","0","1","0","0","47","47","47","47","1","NA","47","NA","0","1","0","47","47","47","47","47","NA","47","47","1","Wed Nov 17 22:08:42 2021","-6","The main experiment item","yes","experiment.osexp","C:/Users/elus/Demant/+Team OMEXP - Article/ISAAR 2021/Data/experiments","no","mono","no","18","no","white","no","Next","1000","no","768","11","1","11","C:/Users/elus/Documents/RecordingLSL_maybefinal/subject-7.csv","5","[<opensesame_plugins.lsl_start.liblsl.LSL_session object at 0x000001E59BB13CC0>]","Kafkaesque Koffka","3.2.7","3","0","2","1024","2","48000","-16","experiment","0","7","odd","NA","10099","159831","NA","5583","210361","207356","208358","209360","NA","NA","210361","NA","NA","159833","8099","206346","207857","208859","209861","206320","207346","206244","206320","160833","New experiment","yes","1024"
"<opensesame_plugins.lsl_start.liblsl.LSL_session object at 0x000001E59BB13CC0>","1","black","[0.0, 0.0]","legacy","0","uniform","48","0","1","0","0","48","48","48","48","1","NA","48","NA","0","1","0","48","48","48","48","48","NA","48","48","1","Wed Nov 17 22:08:42 2021","-6","The main experiment item","yes","experiment.osexp","C:/Users/elus/Demant/+Team OMEXP - Article/ISAAR 2021/Data/experiments","no","mono","no","18","no","white","no","Next","1000","no","768","12","1","12","C:/Users/elus/Documents/RecordingLSL_maybefinal/subject-7.csv","5","[<opensesame_plugins.lsl_start.liblsl.LSL_session object at 0x000001E59BB13CC0>]","Kafkaesque Koffka","3.2.7","1","0","2","1024","2","48000","-16","experiment","0","7","odd","NA","10099","159831","NA","5583","214490","211485","212487","213489","NA","NA","214490","NA","NA","159833","8099","210472","211986","212988","213990","210442","211472","210363","210442","160833","New experiment","yes","1024"
"<opensesame_plugins.lsl_start.liblsl.LSL_session object at 0x000001E59BB13CC0>","1","black","[0.0, 0.0]","legacy","0","uniform","49","0","1","0","0","49","49","49","49","1","NA","49","NA","0","1","0","49","49","49","49","49","NA","49","49","1","Wed Nov 17 22:08:42 2021","-6","The main experiment item","yes","experiment.osexp","C:/Users/elus/Demant/+Team OMEXP - Article/ISAAR 2021/Data/experiments","no","mono","no","18","no","white","no","Next","1000","no","768","13","1","13","C:/Users/elus/Documents/RecordingLSL_maybefinal/subject-7.csv","5","[<opensesame_plugins.lsl_start.liblsl.LSL_session object at 0x000001E59BB13CC0>]","Kafkaesque Koffka","3.2.7","2","0","2","1024","2","48000","-16","experiment","0","7","odd","NA","10099","159831","NA","5583","218622","215617","216619","217621","NA","NA","218622","NA","NA","159833","8099","214603","216118","217120","218122","214573","215603","214495","214573","160833","New experiment","yes","1024"
"<opensesame_plugins.lsl_start.liblsl.LSL_session object at 0x000001E59BB13CC0>","1","black","[0.0, 0.0]","legacy","0","uniform","50","0","1","0","0","50","50","50","50","1","NA","50","NA","0","1","0","50","50","50","50","50","NA","50","50","1","Wed Nov 17 22:08:42 2021","-6.5","The main experiment item","yes","experiment.osexp","C:/Users/elus/Demant/+Team OMEXP - Article/ISAAR 2021/Data/experiments","no","mono","no","18","no","white","no","Next","1000","no","768","14","1","14","C:/Users/elus/Documents/RecordingLSL_maybefinal/subject-7.csv","5","[<opensesame_plugins.lsl_start.liblsl.LSL_session object at 0x000001E59BB13CC0>]","Kafkaesque Koffka","3.2.7","3","0","2","1024","2","48000","-16","experiment","0","7","odd","NA","10099","159831","NA","5583","222752","219747","220749","221751","NA","NA","222752","NA","NA","159833","8099","218732","220248","221250","222252","218705","219732","218624","218705","160833","New experiment","yes","1024"
"<opensesame_plugins.lsl_start.liblsl.LSL_session object at 0x000001E59BB13CC0>","1","black","[0.0, 0.0]","legacy","0","uniform","51","0","1","0","0","51","51","51","51","1","NA","51","NA","0","1","0","51","51","51","51","51","NA","51","51","1","Wed Nov 17 22:08:42 2021","-6.5","The main experiment item","yes","experiment.osexp","C:/Users/elus/Demant/+Team OMEXP - Article/ISAAR 2021/Data/experiments","no","mono","no","18","no","white","no","Next","1000","no","768","15","1","15","C:/Users/elus/Documents/RecordingLSL_maybefinal/subject-7.csv","5","[<opensesame_plugins.lsl_start.liblsl.LSL_session object at 0x000001E59BB13CC0>]","Kafkaesque Koffka","3.2.7","1","0","2","1024","2","48000","-16","experiment","0","7","odd","NA","10099","159831","NA","5583","226881","223876","224878","225880","NA","NA","226881","NA","NA","159833","8099","222858","224377","225379","226381","222833","223858","222754","222833","160833","New experiment","yes","1024"
"<opensesame_plugins.lsl_start.liblsl.LSL_session object at 0x000001E59BB13CC0>","1","black","[0.0, 0.0]","legacy","0","uniform","52","0","1","0","0","52","52","52","52","1","NA","52","NA","0","1","0","52","52","52","52","52","NA","52","52","1","Wed Nov 17 22:08:42 2021","-6.5","The main experiment item","yes","experiment.osexp","C:/Users/elus/Demant/+Team OMEXP - Article/ISAAR 2021/Data/experiments","no","mono","no","18","no","white","no","Next","1000","no","768","16","1","16","C:/Users/elus/Documents/RecordingLSL_maybefinal/subject-7.csv","5","[<opensesame_plugins.lsl_start.liblsl.LSL_session object at 0x000001E59BB13CC0>]","Kafkaesque Koffka","3.2.7","2","0","2","1024","2","48000","-16","experiment","0","7","odd","NA","10099","159831","NA","5583","231005","227999","229002","230004","NA","NA","231005","NA","NA","159833","8099","226989","228500","229503","230505","226961","227989","226883","226961","160833","New experiment","yes","1024"
"<opensesame_plugins.lsl_start.liblsl.LSL_session object at 0x000001E59BB13CC0>","1","black","[0.0, 0.0]","legacy","0","uniform","53","0","1","0","0","53","53","53","53","1","NA","53","NA","0","1","0","53","53","53","53","53","NA","53","53","1","Wed Nov 17 22:08:42 2021","-7","The main experiment item","yes","experiment.osexp","C:/Users/elus/Demant/+Team OMEXP - Article/ISAAR 2021/Data/experiments","no","mono","no","18","no","white","no","Next","1000","no","768","17","1","17","C:/Users/elus/Documents/RecordingLSL_maybefinal/subject-7.csv","5","[<opensesame_plugins.lsl_start.liblsl.LSL_session object at 0x000001E59BB13CC0>]","Kafkaesque Koffka","3.2.7","3","0","2","1024","2","48000","-16","experiment","0","7","odd","NA","10099","159831","NA","5583","235130","232125","233127","234129","NA","NA","235130","NA","NA","159833","8099","231114","232626","233628","234630","231085","232114","231007","231085","160833","New experiment","yes","1024"
"<opensesame_plugins.lsl_start.liblsl.LSL_session object at 0x000001E59BB13CC0>","1","black","[0.0, 0.0]","legacy","0","uniform","54","0","1","0","0","54","54","54","54","1","NA","54","NA","0","1","0","54","54","54","54","54","NA","54","54","1","Wed Nov 17 22:08:42 2021","-7","The main experiment item","yes","experiment.osexp","C:/Users/elus/Demant/+Team OMEXP - Article/ISAAR 2021/Data/experiments","no","mono","no","18","no","white","no","Next","1000","no","768","18","1","18","C:/Users/elus/Documents/RecordingLSL_maybefinal/subject-7.csv","5","[<opensesame_plugins.lsl_start.liblsl.LSL_session object at 0x000001E59BB13CC0>]","Kafkaesque Koffka","3.2.7","1","0","2","1024","2","48000","-16","experiment","0","7","odd","NA","10099","159831","NA","5583","239251","236246","237248","238250","NA","NA","239251","NA","NA","159833","8099","235236","236747","237749","238751","235209","236236","235132","235209","160833","New experiment","yes","1024"
"<opensesame_plugins.lsl_start.liblsl.LSL_session object at 0x000001E59BB13CC0>","1","black","[0.0, 0.0]","legacy","0","uniform","55","0","1","0","0","55","55","55","55","1","NA","55","NA","0","1","0","55","55","55","55","55","NA","55","55","1","Wed Nov 17 22:08:42 2021","-7","The main experiment item","yes","experiment.osexp","C:/Users/elus/Demant/+Team OMEXP - Article/ISAAR 2021/Data/experiments","no","mono","no","18","no","white","no","Next","1000","no","768","19","1","19","C:/Users/elus/Documents/RecordingLSL_maybefinal/subject-7.csv","5","[<opensesame_plugins.lsl_start.liblsl.LSL_session object at 0x000001E59BB13CC0>]","Kafkaesque Koffka","3.2.7","2","0","2","1024","2","48000","-16","experiment","0","7","odd","NA","10099","159831","NA","5583","243380","240375","241377","242379","NA","NA","243380","NA","NA","159833","8099","239359","240876","241878","242880","239331","240359","239253","239331","160833","New experiment","yes","1024"
"<opensesame_plugins.lsl_start.liblsl.LSL_session object at 0x000001E59BB13CC0>","1","black","[0.0, 0.0]","legacy","0","uniform","56","0","1","0","0","56","56","56","56","1","NA","56","NA","0","1","0","56","56","56","56","56","NA","56","56","1","Wed Nov 17 22:08:42 2021","-7.5","The main experiment item","yes","experiment.osexp","C:/Users/elus/Demant/+Team OMEXP - Article/ISAAR 2021/Data/experiments","no","mono","no","18","no","white","no","Next","1000","no","768","20","1","20","C:/Users/elus/Documents/RecordingLSL_maybefinal/subject-7.csv","5","[<opensesame_plugins.lsl_start.liblsl.LSL_session object at 0x000001E59BB13CC0>]","Kafkaesque Koffka","3.2.7","3","0","2","1024","2","48000","-16","experiment","0","7","odd","NA","10099","159831","NA","5583","247510","244505","245507","246509","NA","NA","247510","NA","NA","159833","8099","243491","245006","246008","247010","243462","244491","243382","243462","160833","New experiment","yes","1024"
"<opensesame_plugins.lsl_start.liblsl.LSL_session object at 0x000001E59BB13CC0>","1","black","[0.0, 0.0]","legacy","0","uniform","57","0","1","0","0","57","57","57","57","1","NA","57","NA","0","1","0","57","57","57","57","57","NA","57","57","1","Wed Nov 17 22:08:42 2021","-7.5","The main experiment item","yes","experiment.osexp","C:/Users/elus/Demant/+Team OMEXP - Article/ISAAR 2021/Data/experiments","no","mono","no","18","no","white","no","Next","1000","no","768","21","1","21","C:/Users/elus/Documents/RecordingLSL_maybefinal/subject-7.csv","5","[<opensesame_plugins.lsl_start.liblsl.LSL_session object at 0x000001E59BB13CC0>]","Kafkaesque Koffka","3.2.7","1","0","2","1024","2","48000","-16","experiment","0","7","odd","NA","10099","159831","NA","5583","251642","248635","249639","250641","NA","NA","251642","NA","NA","159833","8099","247620","249137","250140","251142","247590","248620","247512","247590","160833","New experiment","yes","1024"
"<opensesame_plugins.lsl_start.liblsl.LSL_session object at 0x000001E59BB13CC0>","0","black","[0.0, 0.0]","legacy","0","uniform","58","0","1","0","0","58","58","58","58","1","NA","58","NA","0","1","0","58","58","58","58","58","NA","58","58","1","Wed Nov 17 22:08:42 2021","-7.5","The main experiment item","yes","experiment.osexp","C:/Users/elus/Demant/+Team OMEXP - Article/ISAAR 2021/Data/experiments","no","mono","no","18","no","white","no","Next","1000","no","768","22","1","22","C:/Users/elus/Documents/RecordingLSL_maybefinal/subject-7.csv","5","[<opensesame_plugins.lsl_start.liblsl.LSL_session object at 0x000001E59BB13CC0>]","Kafkaesque Koffka","3.2.7","2","0","2","1024","2","48000","-16","experiment","0","7","odd","NA","10099","159831","NA","5583","255774","252767","253770","254773","NA","NA","255774","NA","NA","159833","8099","251752","253268","254272","255274","251722","252752","251644","251722","160833","New experiment","yes","1024"
"<opensesame_plugins.lsl_start.liblsl.LSL_session object at 0x000001E59BB13CC0>","1","black","[0.0, 0.0]","legacy","0","uniform","59","0","1","0","0","59","59","59","59","1","NA","59","NA","0","1","0","59","59","59","59","59","NA","59","59","1","Wed Nov 17 22:08:42 2021","-7","The main experiment item","yes","experiment.osexp","C:/Users/elus/Demant/+Team OMEXP - Article/ISAAR 2021/Data/experiments","no","mono","no","18","no","white","no","Next","1000","no","768","23","1","23","C:/Users/elus/Documents/RecordingLSL_maybefinal/subject-7.csv","5","[<opensesame_plugins.lsl_start.liblsl.LSL_session object at 0x000001E59BB13CC0>]","Kafkaesque Koffka","3.2.7","3","0","2","1024","2","48000","-16","experiment","0","7","odd","NA","10099","159831","NA","5583","259911","256906","257908","258910","NA","NA","259911","NA","NA","159833","8099","255892","257407","258409","259411","255863","256892","255783","255863","160833","New experiment","yes","1024"
"<opensesame_plugins.lsl_start.liblsl.LSL_session object at 0x000001E59BB13CC0>","1","black","[0.0, 0.0]","legacy","0","uniform","60","0","1","0","0","60","60","60","60","1","NA","60","NA","0","1","0","60","60","60","60","60","NA","60","60","1","Wed Nov 17 22:08:42 2021","-7","The main experiment item","yes","experiment.osexp","C:/Users/elus/Demant/+Team OMEXP - Article/ISAAR 2021/Data/experiments","no","mono","no","18","no","white","no","Next","1000","no","768","24","1","24","C:/Users/elus/Documents/RecordingLSL_maybefinal/subject-7.csv","5","[<opensesame_plugins.lsl_start.liblsl.LSL_session object at 0x000001E59BB13CC0>]","Kafkaesque Koffka","3.2.7","1","0","2","1024","2","48000","-16","experiment","0","7","odd","NA","10099","159831","NA","5583","264030","261025","262027","263029","NA","NA","264030","NA","NA","159833","8099","260016","261526","262528","263530","259991","261016","259913","259991","160833","New experiment","yes","1024"
"<opensesame_plugins.lsl_start.liblsl.LSL_session object at 0x000001E59BB13CC0>","1","black","[0.0, 0.0]","legacy","0","uniform","61","0","1","0","0","61","61","61","61","1","NA","61","NA","0","1","0","61","61","61","61","61","NA","61","61","1","Wed Nov 17 22:08:42 2021","-7","The main experiment item","yes","experiment.osexp","C:/Users/elus/Demant/+Team OMEXP - Article/ISAAR 2021/Data/experiments","no","mono","no","18","no","white","no","Next","1000","no","768","25","1","25","C:/Users/elus/Documents/RecordingLSL_maybefinal/subject-7.csv","5","[<opensesame_plugins.lsl_start.liblsl.LSL_session object at 0x000001E59BB13CC0>]","Kafkaesque Koffka","3.2.7","2","0","2","1024","2","48000","-16","experiment","0","7","odd","NA","10099","159831","NA","5583","268160","265155","266157","267159","NA","NA","268160","NA","NA","159833","8099","264139","265656","266658","267660","264110","265139","264032","264110","160833","New experiment","yes","1024"
"<opensesame_plugins.lsl_start.liblsl.LSL_session object at 0x000001E59BB13CC0>","0","black","[0.0, 0.0]","legacy","0","uniform","62","0","1","0","0","62","62","62","62","1","NA","62","NA","0","1","0","62","62","62","62","62","NA","62","62","1","Wed Nov 17 22:08:42 2021","-7.5","The main experiment item","yes","experiment.osexp","C:/Users/elus/Demant/+Team OMEXP - Article/ISAAR 2021/Data/experiments","no","mono","no","18","no","white","no","Next","1000","no","768","26","1","26","C:/Users/elus/Documents/RecordingLSL_maybefinal/subject-7.csv","5","[<opensesame_plugins.lsl_start.liblsl.LSL_session object at 0x000001E59BB13CC0>]","Kafkaesque Koffka","3.2.7","3","0","2","1024","2","48000","-16","experiment","0","7","odd","NA","10099","159831","NA","5583","272289","269285","270286","271288","NA","NA","272289","NA","NA","159833","8099","268270","269785","270787","271789","268243","269270","268164","268243","160833","New experiment","yes","1024"
"<opensesame_plugins.lsl_start.liblsl.LSL_session object at 0x000001E59BB13CC0>","1","black","[0.0, 0.0]","legacy","0","uniform","63","0","1","0","0","63","63","63","63","1","NA","63","NA","0","1","0","63","63","63","63","63","NA","63","63","1","Wed Nov 17 22:08:42 2021","-7","The main experiment item","yes","experiment.osexp","C:/Users/elus/Demant/+Team OMEXP - Article/ISAAR 2021/Data/experiments","no","mono","no","18","no","white","no","Next","1000","no","768","27","1","27","C:/Users/elus/Documents/RecordingLSL_maybefinal/subject-7.csv","5","[<opensesame_plugins.lsl_start.liblsl.LSL_session object at 0x000001E59BB13CC0>]","Kafkaesque Koffka","3.2.7","1","0","2","1024","2","48000","-16","experiment","0","7","odd","NA","10099","159831","NA","5583","276420","273415","274417","275419","NA","NA","276420","NA","NA","159833","8099","272402","273916","274918","275920","272374","273402","272295","272374","160833","New experiment","yes","1024"
"<opensesame_plugins.lsl_start.liblsl.LSL_session object at 0x000001E59BB13CC0>","1","black","[0.0, 0.0]","legacy","0","uniform","64","0","1","0","0","64","64","64","64","1","NA","64","NA","0","1","0","64","64","64","64","64","NA","64","64","1","Wed Nov 17 22:08:42 2021","-7","The main experiment item","yes","experiment.osexp","C:/Users/elus/Demant/+Team OMEXP - Article/ISAAR 2021/Data/experiments","no","mono","no","18","no","white","no","Next","1000","no","768","28","1","28","C:/Users/elus/Documents/RecordingLSL_maybefinal/subject-7.csv","5","[<opensesame_plugins.lsl_start.liblsl.LSL_session object at 0x000001E59BB13CC0>]","Kafkaesque Koffka","3.2.7","2","0","2","1024","2","48000","-16","experiment","0","7","odd","NA","10099","159831","NA","5583","280552","277546","278548","279551","NA","NA","280552","NA","NA","159833","8099","276533","278047","279050","280052","276502","277533","276422","276502","160833","New experiment","yes","1024"
"<opensesame_plugins.lsl_start.liblsl.LSL_session object at 0x000001E59BB13CC0>","0","black","[0.0, 0.0]","legacy","0","uniform","65","0","1","0","0","65","65","65","65","1","NA","65","NA","0","1","0","65","65","65","65","65","NA","65","65","1","Wed Nov 17 22:08:42 2021","-7","The main experiment item","yes","experiment.osexp","C:/Users/elus/Demant/+Team OMEXP - Article/ISAAR 2021/Data/experiments","no","mono","no","18","no","white","no","Next","1000","no","768","29","1","29","C:/Users/elus/Documents/RecordingLSL_maybefinal/subject-7.csv","5","[<opensesame_plugins.lsl_start.liblsl.LSL_session object at 0x000001E59BB13CC0>]","Kafkaesque Koffka","3.2.7","3","0","2","1024","2","48000","-16","experiment","0","7","odd","NA","10099","159831","NA","5583","284683","281677","282680","283682","NA","NA","284683","NA","NA","159833","8099","280661","282178","283181","284183","280635","281661","280554","280635","160833","New experiment","yes","1024"
"<opensesame_plugins.lsl_start.liblsl.LSL_session object at 0x000001E59BB13CC0>","1","black","[0.0, 0.0]","legacy","0","uniform","66","0","1","0","0","66","66","66","66","1","NA","66","NA","0","1","0","66","66","66","66","66","NA","66","66","1","Wed Nov 17 22:08:42 2021","-6.5","The main experiment item","yes","experiment.osexp","C:/Users/elus/Demant/+Team OMEXP - Article/ISAAR 2021/Data/experiments","no","mono","no","18","no","white","no","Next","1000","no","768","30","1","30","C:/Users/elus/Documents/RecordingLSL_maybefinal/subject-7.csv","5","[<opensesame_plugins.lsl_start.liblsl.LSL_session object at 0x000001E59BB13CC0>]","Kafkaesque Koffka","3.2.7","1","0","2","1024","2","48000","-16","experiment","0","7","odd","NA","10099","159831","NA","5583","288810","285805","286807","287809","NA","NA","288810","NA","NA","159833","8099","284789","286306","287308","288310","284763","285789","284685","284763","160833","New experiment","yes","1024"
"<opensesame_plugins.lsl_start.liblsl.LSL_session object at 0x000001E59BB13CC0>","1","black","[0.0, 0.0]","legacy","0","uniform","67","0","1","0","0","67","67","67","67","1","NA","67","NA","0","1","0","67","67","67","67","67","NA","67","67","1","Wed Nov 17 22:08:42 2021","-6.5","The main experiment item","yes","experiment.osexp","C:/Users/elus/Demant/+Team OMEXP - Article/ISAAR 2021/Data/experiments","no","mono","no","18","no","white","no","Next","1000","no","768","31","1","31","C:/Users/elus/Documents/RecordingLSL_maybefinal/subject-7.csv","5","[<opensesame_plugins.lsl_start.liblsl.LSL_session object at 0x000001E59BB13CC0>]","Kafkaesque Koffka","3.2.7","2","0","2","1024","2","48000","-16","experiment","0","7","odd","NA","10099","159831","NA","5583","292933","289928","290930","291932","NA","NA","292933","NA","NA","159833","8099","288918","290429","291431","292433","288890","289918","288812","288890","160833","New experiment","yes","1024"
"<opensesame_plugins.lsl_start.liblsl.LSL_session object at 0x000001E59BB13CC0>","1","black","[0.0, 0.0]","legacy","0","uniform","68","0","1","0","0","68","68","68","68","1","NA","68","NA","0","1","0","68","68","68","68","68","NA","68","68","1","Wed Nov 17 22:08:42 2021","-6.5","The main experiment item","yes","experiment.osexp","C:/Users/elus/Demant/+Team OMEXP - Article/ISAAR 2021/Data/experiments","no","mono","no","18","no","white","no","Next","1000","no","768","32","1","32","C:/Users/elus/Documents/RecordingLSL_maybefinal/subject-7.csv","5","[<opensesame_plugins.lsl_start.liblsl.LSL_session object at 0x000001E59BB13CC0>]","Kafkaesque Koffka","3.2.7","3","0","2","1024","2","48000","-16","experiment","0","7","odd","NA","10099","159831","NA","5583","297059","294055","295056","296058","NA","NA","297059","NA","NA","159833","8099","293046","294556","295557","296559","293018","294046","292935","293018","160833","New experiment","yes","1024"
"<opensesame_plugins.lsl_start.liblsl.LSL_session object at 0x000001E59BB13CC0>","1","black","[0.0, 0.0]","legacy","0","uniform","69","0","1","0","0","69","69","69","69","1","NA","69","NA","0","1","0","69","69","69","69","69","NA","69","69","1","Wed Nov 17 22:08:42 2021","-7","The main experiment item","yes","experiment.osexp","C:/Users/elus/Demant/+Team OMEXP - Article/ISAAR 2021/Data/experiments","no","mono","no","18","no","white","no","Next","1000","no","768","33","1","33","C:/Users/elus/Documents/RecordingLSL_maybefinal/subject-7.csv","5","[<opensesame_plugins.lsl_start.liblsl.LSL_session object at 0x000001E59BB13CC0>]","Kafkaesque Koffka","3.2.7","1","0","2","1024","2","48000","-16","experiment","0","7","odd","NA","10099","159831","NA","5583","301181","298175","299178","300180","NA","NA","301181","NA","NA","159833","8099","297167","298677","299679","300681","297139","298167","297061","297139","160833","New experiment","yes","1024"
"<opensesame_plugins.lsl_start.liblsl.LSL_session object at 0x000001E59BB13CC0>","1","black","[0.0, 0.0]","legacy","0","uniform","70","0","1","0","0","70","70","70","70","1","NA","70","NA","0","1","0","70","70","70","70","70","NA","70","70","1","Wed Nov 17 22:08:42 2021","-7","The main experiment item","yes","experiment.osexp","C:/Users/elus/Demant/+Team OMEXP - Article/ISAAR 2021/Data/experiments","no","mono","no","18","no","white","no","Next","1000","no","768","34","1","34","C:/Users/elus/Documents/RecordingLSL_maybefinal/subject-7.csv","5","[<opensesame_plugins.lsl_start.liblsl.LSL_session object at 0x000001E59BB13CC0>]","Kafkaesque Koffka","3.2.7","2","0","2","1024","2","48000","-16","experiment","0","7","odd","NA","10099","159831","NA","5583","305302","302297","303299","304301","NA","NA","305302","NA","NA","159833","8099","301287","302798","303800","304802","301261","302288","301183","301261","160833","New experiment","yes","1024"
"<opensesame_plugins.lsl_start.liblsl.LSL_session object at 0x000001E59BB13CC0>","1","black","[0.0, 0.0]","legacy","0","uniform","71","0","1","0","0","71","71","71","71","1","NA","71","NA","0","1","0","71","71","71","71","71","NA","71","71","1","Wed Nov 17 22:08:42 2021","-7","The main experiment item","yes","experiment.osexp","C:/Users/elus/Demant/+Team OMEXP - Article/ISAAR 2021/Data/experiments","no","mono","no","18","no","white","no","Next","1000","no","768","35","1","35","C:/Users/elus/Documents/RecordingLSL_maybefinal/subject-7.csv","5","[<opensesame_plugins.lsl_start.liblsl.LSL_session object at 0x000001E59BB13CC0>]","Kafkaesque Koffka","3.2.7","3","0","2","1024","2","48000","-16","experiment","0","7","odd","NA","10099","159831","NA","5583","309430","306425","307427","308429","NA","NA","309430","NA","NA","159833","8099","305410","306926","307928","308930","305384","306410","305307","305384","160833","New experiment","yes","1024"
"<opensesame_plugins.lsl_start.liblsl.LSL_session object at 0x000001E59BB13CC0>","1","black","[0.0, 0.0]","legacy","0","uniform","72","0","2","0","0","72","72","72","72","2","NA","72","NA","0","2","0","72","72","72","72","72","NA","72","72","2","Wed Nov 17 22:08:42 2021","-6","The main experiment item","yes","experiment.osexp","C:/Users/elus/Demant/+Team OMEXP - Article/ISAAR 2021/Data/experiments","no","mono","no","18","no","white","no","Next","400","no","768","0","2","0","C:/Users/elus/Documents/RecordingLSL_maybefinal/subject-7.csv","10","[<opensesame_plugins.lsl_start.liblsl.LSL_session object at 0x000001E59BB13CC0>]","Kafkaesque Koffka","3.2.7","1","0","2","1024","2","48000","-16","experiment","0","7","odd","NA","10099","309522","NA","5583","314601","311596","312598","313600","NA","NA","314601","NA","NA","309523","8099","310586","312097","313099","314101","310567","311587","309432","310567","310523","New experiment","yes","1024"
"<opensesame_plugins.lsl_start.liblsl.LSL_session object at 0x000001E59BB13CC0>","1","black","[0.0, 0.0]","legacy","0","uniform","73","0","2","0","0","73","73","73","73","2","NA","73","NA","0","2","0","73","73","73","73","73","NA","73","73","2","Wed Nov 17 22:08:42 2021","-6","The main experiment item","yes","experiment.osexp","C:/Users/elus/Demant/+Team OMEXP - Article/ISAAR 2021/Data/experiments","no","mono","no","18","no","white","no","Next","400","no","768","1","2","1","C:/Users/elus/Documents/RecordingLSL_maybefinal/subject-7.csv","10","[<opensesame_plugins.lsl_start.liblsl.LSL_session object at 0x000001E59BB13CC0>]","Kafkaesque Koffka","3.2.7","2","0","2","1024","2","48000","-16","experiment","0","7","odd","NA","10099","309522","NA","5583","318830","315825","316827","317829","NA","NA","318830","NA","NA","309523","8099","314814","316326","317328","318330","314686","315814","314607","314686","310523","New experiment","yes","1024"
"<opensesame_plugins.lsl_start.liblsl.LSL_session object at 0x000001E59BB13CC0>","1","black","[0.0, 0.0]","legacy","0","uniform","74","0","2","0","0","74","74","74","74","2","NA","74","NA","0","2","0","74","74","74","74","74","NA","74","74","2","Wed Nov 17 22:08:42 2021","-6","The main experiment item","yes","experiment.osexp","C:/Users/elus/Demant/+Team OMEXP - Article/ISAAR 2021/Data/experiments","no","mono","no","18","no","white","no","Next","400","no","768","2","2","2","C:/Users/elus/Documents/RecordingLSL_maybefinal/subject-7.csv","10","[<opensesame_plugins.lsl_start.liblsl.LSL_session object at 0x000001E59BB13CC0>]","Kafkaesque Koffka","3.2.7","3","0","2","1024","2","48000","-16","experiment","0","7","odd","NA","10099","309522","NA","5583","322991","319982","320988","321990","NA","NA","322991","NA","NA","309523","8099","318965","320483","321489","322491","318927","319965","318832","318927","310523","New experiment","yes","1024"
"<opensesame_plugins.lsl_start.liblsl.LSL_session object at 0x000001E59BB13CC0>","0","black","[0.0, 0.0]","legacy","0","uniform","75","0","2","0","0","75","75","75","75","2","NA","75","NA","0","2","0","75","75","75","75","75","NA","75","75","2","Wed Nov 17 22:08:42 2021","-7","The main experiment item","yes","experiment.osexp","C:/Users/elus/Demant/+Team OMEXP - Article/ISAAR 2021/Data/experiments","no","mono","no","18","no","white","no","Next","400","no","768","3","2","3","C:/Users/elus/Documents/RecordingLSL_maybefinal/subject-7.csv","10","[<opensesame_plugins.lsl_start.liblsl.LSL_session object at 0x000001E59BB13CC0>]","Kafkaesque Koffka","3.2.7","1","0","2","1024","2","48000","-16","experiment","0","7","odd","NA","10099","309522","NA","5583","327158","324153","325155","326157","NA","NA","327158","NA","NA","309523","8099","323133","324654","325656","326658","323099","324133","322993","323099","310523","New experiment","yes","1024"
"<opensesame_plugins.lsl_start.liblsl.LSL_session object at 0x000001E59BB13CC0>","1","black","[0.0, 0.0]","legacy","0","uniform","76","0","2","0","0","76","76","76","76","2","NA","76","NA","0","2","0","76","76","76","76","76","NA","76","76","2","Wed Nov 17 22:08:42 2021","-6.5","The main experiment item","yes","experiment.osexp","C:/Users/elus/Demant/+Team OMEXP - Article/ISAAR 2021/Data/experiments","no","mono","no","18","no","white","no","Next","400","no","768","4","2","4","C:/Users/elus/Documents/RecordingLSL_maybefinal/subject-7.csv","10","[<opensesame_plugins.lsl_start.liblsl.LSL_session object at 0x000001E59BB13CC0>]","Kafkaesque Koffka","3.2.7","2","0","2","1024","2","48000","-16","experiment","0","7","odd","NA","10099","309522","NA","5583","331328","328321","329325","330327","NA","NA","331328","NA","NA","309523","8099","327302","328822","329826","330828","327268","328302","327160","327268","310523","New experiment","yes","1024"
"<opensesame_plugins.lsl_start.liblsl.LSL_session object at 0x000001E59BB13CC0>","1","black","[0.0, 0.0]","legacy","0","uniform","77","0","2","0","0","77","77","77","77","2","NA","77","NA","0","2","0","77","77","77","77","77","NA","77","77","2","Wed Nov 17 22:08:42 2021","-6.5","The main experiment item","yes","experiment.osexp","C:/Users/elus/Demant/+Team OMEXP - Article/ISAAR 2021/Data/experiments","no","mono","no","18","no","white","no","Next","400","no","768","5","2","5","C:/Users/elus/Documents/RecordingLSL_maybefinal/subject-7.csv","10","[<opensesame_plugins.lsl_start.liblsl.LSL_session object at 0x000001E59BB13CC0>]","Kafkaesque Koffka","3.2.7","3","0","2","1024","2","48000","-16","experiment","0","7","odd","NA","10099","309522","NA","5583","335490","332482","333487","334489","NA","NA","335490","NA","NA","309523","8099","331462","332983","333988","334990","331427","332462","331332","331426","310523","New experiment","yes","1024"
"<opensesame_plugins.lsl_start.liblsl.LSL_session object at 0x000001E59BB13CC0>","1","black","[0.0, 0.0]","legacy","0","uniform","78","0","2","0","0","78","78","78","78","2","NA","78","NA","0","2","0","78","78","78","78","78","NA","78","78","2","Wed Nov 17 22:08:42 2021","-6.5","The main experiment item","yes","experiment.osexp","C:/Users/elus/Demant/+Team OMEXP - Article/ISAAR 2021/Data/experiments","no","mono","no","18","no","white","no","Next","400","no","768","6","2","6","C:/Users/elus/Documents/RecordingLSL_maybefinal/subject-7.csv","10","[<opensesame_plugins.lsl_start.liblsl.LSL_session object at 0x000001E59BB13CC0>]","Kafkaesque Koffka","3.2.7","1","0","2","1024","2","48000","-16","experiment","0","7","odd","NA","10099","309522","NA","5583","339650","336645","337647","338649","NA","NA","339650","NA","NA","309523","8099","335628","337146","338148","339150","335588","336628","335494","335588","310523","New experiment","yes","1024"
"<opensesame_plugins.lsl_start.liblsl.LSL_session object at 0x000001E59BB13CC0>","1","black","[0.0, 0.0]","legacy","0","uniform","79","0","2","0","0","79","79","79","79","2","NA","79","NA","0","2","0","79","79","79","79","79","NA","79","79","2","Wed Nov 17 22:08:42 2021","-7","The main experiment item","yes","experiment.osexp","C:/Users/elus/Demant/+Team OMEXP - Article/ISAAR 2021/Data/experiments","no","mono","no","18","no","white","no","Next","400","no","768","7","2","7","C:/Users/elus/Documents/RecordingLSL_maybefinal/subject-7.csv","10","[<opensesame_plugins.lsl_start.liblsl.LSL_session object at 0x000001E59BB13CC0>]","Kafkaesque Koffka","3.2.7","2","0","2","1024","2","48000","-16","experiment","0","7","odd","NA","10099","309522","NA","5583","343813","340808","341810","342812","NA","NA","343813","NA","NA","309523","8099","339785","341309","342311","343313","339748","340785","339652","339748","310523","New experiment","yes","1024"
"<opensesame_plugins.lsl_start.liblsl.LSL_session object at 0x000001E59BB13CC0>","1","black","[0.0, 0.0]","legacy","0","uniform","80","0","2","0","0","80","80","80","80","2","NA","80","NA","0","2","0","80","80","80","80","80","NA","80","80","2","Wed Nov 17 22:08:42 2021","-7","The main experiment item","yes","experiment.osexp","C:/Users/elus/Demant/+Team OMEXP - Article/ISAAR 2021/Data/experiments","no","mono","no","18","no","white","no","Next","400","no","768","8","2","8","C:/Users/elus/Documents/RecordingLSL_maybefinal/subject-7.csv","10","[<opensesame_plugins.lsl_start.liblsl.LSL_session object at 0x000001E59BB13CC0>]","Kafkaesque Koffka","3.2.7","3","0","2","1024","2","48000","-16","experiment","0","7","odd","NA","10099","309522","NA","5583","347980","344964","345976","346979","NA","NA","347980","NA","NA","309523","8099","343945","345465","346478","347480","343911","344945","343815","343911","310523","New experiment","yes","1024"
"<opensesame_plugins.lsl_start.liblsl.LSL_session object at 0x000001E59BB13CC0>","1","black","[0.0, 0.0]","legacy","0","uniform","81","0","2","0","0","81","81","81","81","2","NA","81","NA","0","2","0","81","81","81","81","81","NA","81","81","2","Wed Nov 17 22:08:42 2021","-7","The main experiment item","yes","experiment.osexp","C:/Users/elus/Demant/+Team OMEXP - Article/ISAAR 2021/Data/experiments","no","mono","no","18","no","white","no","Next","400","no","768","9","2","9","C:/Users/elus/Documents/RecordingLSL_maybefinal/subject-7.csv","10","[<opensesame_plugins.lsl_start.liblsl.LSL_session object at 0x000001E59BB13CC0>]","Kafkaesque Koffka","3.2.7","1","0","2","1024","2","48000","-16","experiment","0","7","odd","NA","10099","309522","NA","5583","352150","349142","350147","351149","NA","NA","352150","NA","NA","309523","8099","348119","349643","350648","351650","348086","349119","347990","348086","310523","New experiment","yes","1024"
"<opensesame_plugins.lsl_start.liblsl.LSL_session object at 0x000001E59BB13CC0>","1","black","[0.0, 0.0]","legacy","0","uniform","82","0","2","0","0","82","82","82","82","2","NA","82","NA","0","2","0","82","82","82","82","82","NA","82","82","2","Wed Nov 17 22:08:42 2021","-7.5","The main experiment item","yes","experiment.osexp","C:/Users/elus/Demant/+Team OMEXP - Article/ISAAR 2021/Data/experiments","no","mono","no","18","no","white","no","Next","400","no","768","10","2","10","C:/Users/elus/Documents/RecordingLSL_maybefinal/subject-7.csv","10","[<opensesame_plugins.lsl_start.liblsl.LSL_session object at 0x000001E59BB13CC0>]","Kafkaesque Koffka","3.2.7","2","0","2","1024","2","48000","-16","experiment","0","7","odd","NA","10099","309522","NA","5583","356311","353305","354308","355310","NA","NA","356311","NA","NA","309523","8099","352286","353806","354809","355811","352248","353287","352154","352248","310523","New experiment","yes","1024"
"<opensesame_plugins.lsl_start.liblsl.LSL_session object at 0x000001E59BB13CC0>","1","black","[0.0, 0.0]","legacy","0","uniform","83","0","2","0","0","83","83","83","83","2","NA","83","NA","0","2","0","83","83","83","83","83","NA","83","83","2","Wed Nov 17 22:08:42 2021","-7.5","The main experiment item","yes","experiment.osexp","C:/Users/elus/Demant/+Team OMEXP - Article/ISAAR 2021/Data/experiments","no","mono","no","18","no","white","no","Next","400","no","768","11","2","11","C:/Users/elus/Documents/RecordingLSL_maybefinal/subject-7.csv","10","[<opensesame_plugins.lsl_start.liblsl.LSL_session object at 0x000001E59BB13CC0>]","Kafkaesque Koffka","3.2.7","3","0","2","1024","2","48000","-16","experiment","0","7","odd","NA","10099","309522","NA","5583","360470","357465","358467","359469","NA","NA","360470","NA","NA","309523","8099","356445","357966","358968","359970","356408","357447","356313","356408","310523","New experiment","yes","1024"
"<opensesame_plugins.lsl_start.liblsl.LSL_session object at 0x000001E59BB13CC0>","1","black","[0.0, 0.0]","legacy","0","uniform","84","0","2","0","0","84","84","84","84","2","NA","84","NA","0","2","0","84","84","84","84","84","NA","84","84","2","Wed Nov 17 22:08:42 2021","-7.5","The main experiment item","yes","experiment.osexp","C:/Users/elus/Demant/+Team OMEXP - Article/ISAAR 2021/Data/experiments","no","mono","no","18","no","white","no","Next","400","no","768","12","2","12","C:/Users/elus/Documents/RecordingLSL_maybefinal/subject-7.csv","10","[<opensesame_plugins.lsl_start.liblsl.LSL_session object at 0x000001E59BB13CC0>]","Kafkaesque Koffka","3.2.7","1","0","2","1024","2","48000","-16","experiment","0","7","odd","NA","10099","309522","NA","5583","364636","361626","362633","363635","NA","NA","364636","NA","NA","309523","8099","360608","362127","363134","364136","360574","361608","360479","360574","310523","New experiment","yes","1024"
"<opensesame_plugins.lsl_start.liblsl.LSL_session object at 0x000001E59BB13CC0>","0","black","[0.0, 0.0]","legacy","0","uniform","85","0","2","0","0","85","85","85","85","2","NA","85","NA","0","2","0","85","85","85","85","85","NA","85","85","2","Wed Nov 17 22:08:42 2021","-8","The main experiment item","yes","experiment.osexp","C:/Users/elus/Demant/+Team OMEXP - Article/ISAAR 2021/Data/experiments","no","mono","no","18","no","white","no","Next","400","no","768","13","2","13","C:/Users/elus/Documents/RecordingLSL_maybefinal/subject-7.csv","10","[<opensesame_plugins.lsl_start.liblsl.LSL_session object at 0x000001E59BB13CC0>]","Kafkaesque Koffka","3.2.7","2","0","2","1024","2","48000","-16","experiment","0","7","odd","NA","10099","309522","NA","5583","368803","365794","366799","367801","NA","NA","368803","NA","NA","309523","8099","364769","366295","367300","368303","364732","365770","364638","364732","310523","New experiment","yes","1024"
"<opensesame_plugins.lsl_start.liblsl.LSL_session object at 0x000001E59BB13CC0>","1","black","[0.0, 0.0]","legacy","0","uniform","86","0","2","0","0","86","86","86","86","2","NA","86","NA","0","2","0","86","86","86","86","86","NA","86","86","2","Wed Nov 17 22:08:42 2021","-7.5","The main experiment item","yes","experiment.osexp","C:/Users/elus/Demant/+Team OMEXP - Article/ISAAR 2021/Data/experiments","no","mono","no","18","no","white","no","Next","400","no","768","14","2","14","C:/Users/elus/Documents/RecordingLSL_maybefinal/subject-7.csv","10","[<opensesame_plugins.lsl_start.liblsl.LSL_session object at 0x000001E59BB13CC0>]","Kafkaesque Koffka","3.2.7","3","0","2","1024","2","48000","-16","experiment","0","7","odd","NA","10099","309522","NA","5583","372960","369952","370956","371959","NA","NA","372960","NA","NA","309523","8099","368936","370453","371458","372460","368900","369936","368805","368900","310523","New experiment","yes","1024"
"<opensesame_plugins.lsl_start.liblsl.LSL_session object at 0x000001E59BB13CC0>","1","black","[0.0, 0.0]","legacy","0","uniform","87","0","2","0","0","87","87","87","87","2","NA","87","NA","0","2","0","87","87","87","87","87","NA","87","87","2","Wed Nov 17 22:08:42 2021","-7.5","The main experiment item","yes","experiment.osexp","C:/Users/elus/Demant/+Team OMEXP - Article/ISAAR 2021/Data/experiments","no","mono","no","18","no","white","no","Next","400","no","768","15","2","15","C:/Users/elus/Documents/RecordingLSL_maybefinal/subject-7.csv","10","[<opensesame_plugins.lsl_start.liblsl.LSL_session object at 0x000001E59BB13CC0>]","Kafkaesque Koffka","3.2.7","1","0","2","1024","2","48000","-16","experiment","0","7","odd","NA","10099","309522","NA","5583","377121","374113","375118","376120","NA","NA","377121","NA","NA","309523","8099","373094","374614","375619","376621","373056","374094","372962","373056","310523","New experiment","yes","1024"
"<opensesame_plugins.lsl_start.liblsl.LSL_session object at 0x000001E59BB13CC0>","1","black","[0.0, 0.0]","legacy","0","uniform","88","0","2","0","0","88","88","88","88","2","NA","88","NA","0","2","0","88","88","88","88","88","NA","88","88","2","Wed Nov 17 22:08:42 2021","-7.5","The main experiment item","yes","experiment.osexp","C:/Users/elus/Demant/+Team OMEXP - Article/ISAAR 2021/Data/experiments","no","mono","no","18","no","white","no","Next","400","no","768","16","2","16","C:/Users/elus/Documents/RecordingLSL_maybefinal/subject-7.csv","10","[<opensesame_plugins.lsl_start.liblsl.LSL_session object at 0x000001E59BB13CC0>]","Kafkaesque Koffka","3.2.7","2","0","2","1024","2","48000","-16","experiment","0","7","odd","NA","10099","309522","NA","5583","381286","378273","379282","380285","NA","NA","381286","NA","NA","309523","8099","377253","378774","379784","380786","377217","378253","377123","377217","310523","New experiment","yes","1024"
"<opensesame_plugins.lsl_start.liblsl.LSL_session object at 0x000001E59BB13CC0>","1","black","[0.0, 0.0]","legacy","0","uniform","89","0","2","0","0","89","89","89","89","2","NA","89","NA","0","2","0","89","89","89","89","89","NA","89","89","2","Wed Nov 17 22:08:42 2021","-8","The main experiment item","yes","experiment.osexp","C:/Users/elus/Demant/+Team OMEXP - Article/ISAAR 2021/Data/experiments","no","mono","no","18","no","white","no","Next","400","no","768","17","2","17","C:/Users/elus/Documents/RecordingLSL_maybefinal/subject-7.csv","10","[<opensesame_plugins.lsl_start.liblsl.LSL_session object at 0x000001E59BB13CC0>]","Kafkaesque Koffka","3.2.7","3","0","2","1024","2","48000","-16","experiment","0","7","odd","NA","10099","309522","NA","5583","385449","382442","383446","384448","NA","NA","385449","NA","NA","309523","8099","381422","382943","383947","384949","381388","382422","381292","381388","310523","New experiment","yes","1024"
"<opensesame_plugins.lsl_start.liblsl.LSL_session object at 0x000001E59BB13CC0>","1","black","[0.0, 0.0]","legacy","0","uniform","90","0","2","0","0","90","90","90","90","2","NA","90","NA","0","2","0","90","90","90","90","90","NA","90","90","2","Wed Nov 17 22:08:42 2021","-8","The main experiment item","yes","experiment.osexp","C:/Users/elus/Demant/+Team OMEXP - Article/ISAAR 2021/Data/experiments","no","mono","no","18","no","white","no","Next","400","no","768","18","2","18","C:/Users/elus/Documents/RecordingLSL_maybefinal/subject-7.csv","10","[<opensesame_plugins.lsl_start.liblsl.LSL_session object at 0x000001E59BB13CC0>]","Kafkaesque Koffka","3.2.7","1","0","2","1024","2","48000","-16","experiment","0","7","odd","NA","10099","309522","NA","5583","389614","386604","387610","388612","NA","NA","389614","NA","NA","309523","8099","385583","387105","388111","389114","385543","386583","385451","385543","310523","New experiment","yes","1024"
"<opensesame_plugins.lsl_start.liblsl.LSL_session object at 0x000001E59BB13CC0>","1","black","[0.0, 0.0]","legacy","0","uniform","91","0","2","0","0","91","91","91","91","2","NA","91","NA","0","2","0","91","91","91","91","91","NA","91","91","2","Wed Nov 17 22:08:42 2021","-8","The main experiment item","yes","experiment.osexp","C:/Users/elus/Demant/+Team OMEXP - Article/ISAAR 2021/Data/experiments","no","mono","no","18","no","white","no","Next","400","no","768","19","2","19","C:/Users/elus/Documents/RecordingLSL_maybefinal/subject-7.csv","10","[<opensesame_plugins.lsl_start.liblsl.LSL_session object at 0x000001E59BB13CC0>]","Kafkaesque Koffka","3.2.7","2","0","2","1024","2","48000","-16","experiment","0","7","odd","NA","10099","309522","NA","5583","393778","390764","391775","392777","NA","NA","393778","NA","NA","309523","8099","389747","391265","392276","393278","389712","390747","389618","389712","310523","New experiment","yes","1024"
"<opensesame_plugins.lsl_start.liblsl.LSL_session object at 0x000001E59BB13CC0>","1","black","[0.0, 0.0]","legacy","0","uniform","92","0","2","0","0","92","92","92","92","2","NA","92","NA","0","2","0","92","92","92","92","92","NA","92","92","2","Wed Nov 17 22:08:42 2021","-8.5","The main experiment item","yes","experiment.osexp","C:/Users/elus/Demant/+Team OMEXP - Article/ISAAR 2021/Data/experiments","no","mono","no","18","no","white","no","Next","400","no","768","20","2","20","C:/Users/elus/Documents/RecordingLSL_maybefinal/subject-7.csv","10","[<opensesame_plugins.lsl_start.liblsl.LSL_session object at 0x000001E59BB13CC0>]","Kafkaesque Koffka","3.2.7","3","0","2","1024","2","48000","-16","experiment","0","7","odd","NA","10099","309522","NA","5583","397940","394930","395936","396939","NA","NA","397940","NA","NA","309523","8099","393910","395431","396437","397440","393875","394910","393780","393875","310523","New experiment","yes","1024"
"<opensesame_plugins.lsl_start.liblsl.LSL_session object at 0x000001E59BB13CC0>","0","black","[0.0, 0.0]","legacy","0","uniform","93","0","2","0","0","93","93","93","93","2","NA","93","NA","0","2","0","93","93","93","93","93","NA","93","93","2","Wed Nov 17 22:08:42 2021","-8.5","The main experiment item","yes","experiment.osexp","C:/Users/elus/Demant/+Team OMEXP - Article/ISAAR 2021/Data/experiments","no","mono","no","18","no","white","no","Next","400","no","768","21","2","21","C:/Users/elus/Documents/RecordingLSL_maybefinal/subject-7.csv","10","[<opensesame_plugins.lsl_start.liblsl.LSL_session object at 0x000001E59BB13CC0>]","Kafkaesque Koffka","3.2.7","1","0","2","1024","2","48000","-16","experiment","0","7","odd","NA","10099","309522","NA","5583","402100","399092","400097","401099","NA","NA","402100","NA","NA","309523","8099","398072","399594","400598","401600","398038","399072","397942","398038","310523","New experiment","yes","1024"
"<opensesame_plugins.lsl_start.liblsl.LSL_session object at 0x000001E59BB13CC0>","1","black","[0.0, 0.0]","legacy","0","uniform","94","0","2","0","0","94","94","94","94","2","NA","94","NA","0","2","0","94","94","94","94","94","NA","94","94","2","Wed Nov 17 22:08:42 2021","-8","The main experiment item","yes","experiment.osexp","C:/Users/elus/Demant/+Team OMEXP - Article/ISAAR 2021/Data/experiments","no","mono","no","18","no","white","no","Next","400","no","768","22","2","22","C:/Users/elus/Documents/RecordingLSL_maybefinal/subject-7.csv","10","[<opensesame_plugins.lsl_start.liblsl.LSL_session object at 0x000001E59BB13CC0>]","Kafkaesque Koffka","3.2.7","2","0","2","1024","2","48000","-16","experiment","0","7","odd","NA","10099","309522","NA","5583","406261","403253","404258","405260","NA","NA","406261","NA","NA","309523","8099","402236","403754","404759","405761","402198","403236","402102","402198","310523","New experiment","yes","1024"
"<opensesame_plugins.lsl_start.liblsl.LSL_session object at 0x000001E59BB13CC0>","1","black","[0.0, 0.0]","legacy","0","uniform","95","0","2","0","0","95","95","95","95","2","NA","95","NA","0","2","0","95","95","95","95","95","NA","95","95","2","Wed Nov 17 22:08:42 2021","-8","The main experiment item","yes","experiment.osexp","C:/Users/elus/Demant/+Team OMEXP - Article/ISAAR 2021/Data/experiments","no","mono","no","18","no","white","no","Next","400","no","768","23","2","23","C:/Users/elus/Documents/RecordingLSL_maybefinal/subject-7.csv","10","[<opensesame_plugins.lsl_start.liblsl.LSL_session object at 0x000001E59BB13CC0>]","Kafkaesque Koffka","3.2.7","3","0","2","1024","2","48000","-16","experiment","0","7","odd","NA","10099","309522","NA","5583","410415","407407","408412","409414","NA","NA","410415","NA","NA","309523","8099","406394","407908","408913","409915","406356","407394","406263","406356","310523","New experiment","yes","1024"
"<opensesame_plugins.lsl_start.liblsl.LSL_session object at 0x000001E59BB13CC0>","1","black","[0.0, 0.0]","legacy","0","uniform","96","0","2","0","0","96","96","96","96","2","NA","96","NA","0","2","0","96","96","96","96","96","NA","96","96","2","Wed Nov 17 22:08:42 2021","-8","The main experiment item","yes","experiment.osexp","C:/Users/elus/Demant/+Team OMEXP - Article/ISAAR 2021/Data/experiments","no","mono","no","18","no","white","no","Next","400","no","768","24","2","24","C:/Users/elus/Documents/RecordingLSL_maybefinal/subject-7.csv","10","[<opensesame_plugins.lsl_start.liblsl.LSL_session object at 0x000001E59BB13CC0>]","Kafkaesque Koffka","3.2.7","1","0","2","1024","2","48000","-16","experiment","0","7","odd","NA","10099","309522","NA","5583","414577","411569","412574","413576","NA","NA","414577","NA","NA","309523","8099","410548","412071","413075","414077","410512","411548","410417","410512","310523","New experiment","yes","1024"
"<opensesame_plugins.lsl_start.liblsl.LSL_session object at 0x000001E59BB13CC0>","0","black","[0.0, 0.0]","legacy","0","uniform","97","0","2","0","0","97","97","97","97","2","NA","97","NA","0","2","0","97","97","97","97","97","NA","97","97","2","Wed Nov 17 22:08:42 2021","-8.5","The main experiment item","yes","experiment.osexp","C:/Users/elus/Demant/+Team OMEXP - Article/ISAAR 2021/Data/experiments","no","mono","no","18","no","white","no","Next","400","no","768","25","2","25","C:/Users/elus/Documents/RecordingLSL_maybefinal/subject-7.csv","10","[<opensesame_plugins.lsl_start.liblsl.LSL_session object at 0x000001E59BB13CC0>]","Kafkaesque Koffka","3.2.7","2","0","2","1024","2","48000","-16","experiment","0","7","odd","NA","10099","309522","NA","5583","418741","415733","416738","417740","NA","NA","418741","NA","NA","309523","8099","414710","416234","417239","418241","414676","415710","414580","414676","310523","New experiment","yes","1024"
"<opensesame_plugins.lsl_start.liblsl.LSL_session object at 0x000001E59BB13CC0>","1","black","[0.0, 0.0]","legacy","0","uniform","98","0","2","0","0","98","98","98","98","2","NA","98","NA","0","2","0","98","98","98","98","98","NA","98","98","2","Wed Nov 17 22:08:42 2021","-8","The main experiment item","yes","experiment.osexp","C:/Users/elus/Demant/+Team OMEXP - Article/ISAAR 2021/Data/experiments","no","mono","no","18","no","white","no","Next","400","no","768","26","2","26","C:/Users/elus/Documents/RecordingLSL_maybefinal/subject-7.csv","10","[<opensesame_plugins.lsl_start.liblsl.LSL_session object at 0x000001E59BB13CC0>]","Kafkaesque Koffka","3.2.7","3","0","2","1024","2","48000","-16","experiment","0","7","odd","NA","10099","309522","NA","5583","422906","419898","420903","421905","NA","NA","422906","NA","NA","309523","8099","418879","420399","421404","422406","418841","419879","418743","418841","310523","New experiment","yes","1024"
"<opensesame_plugins.lsl_start.liblsl.LSL_session object at 0x000001E59BB13CC0>","0","black","[0.0, 0.0]","legacy","0","uniform","99","0","2","0","0","99","99","99","99","2","NA","99","NA","0","2","0","99","99","99","99","99","NA","99","99","2","Wed Nov 17 22:08:42 2021","-8","The main experiment item","yes","experiment.osexp","C:/Users/elus/Demant/+Team OMEXP - Article/ISAAR 2021/Data/experiments","no","mono","no","18","no","white","no","Next","400","no","768","27","2","27","C:/Users/elus/Documents/RecordingLSL_maybefinal/subject-7.csv","10","[<opensesame_plugins.lsl_start.liblsl.LSL_session object at 0x000001E59BB13CC0>]","Kafkaesque Koffka","3.2.7","1","0","2","1024","2","48000","-16","experiment","0","7","odd","NA","10099","309522","NA","5583","427070","424061","425067","426069","NA","NA","427070","NA","NA","309523","8099","423042","424563","425568","426570","423005","424042","422908","423005","310523","New experiment","yes","1024"
"<opensesame_plugins.lsl_start.liblsl.LSL_session object at 0x000001E59BB13CC0>","0","black","[0.0, 0.0]","legacy","0","uniform","100","0","2","0","0","100","100","100","100","2","NA","100","NA","0","2","0","100","100","100","100","100","NA","100","100","2","Wed Nov 17 22:08:42 2021","-7.5","The main experiment item","yes","experiment.osexp","C:/Users/elus/Demant/+Team OMEXP - Article/ISAAR 2021/Data/experiments","no","mono","no","18","no","white","no","Next","400","no","768","28","2","28","C:/Users/elus/Documents/RecordingLSL_maybefinal/subject-7.csv","10","[<opensesame_plugins.lsl_start.liblsl.LSL_session object at 0x000001E59BB13CC0>]","Kafkaesque Koffka","3.2.7","2","0","2","1024","2","48000","-16","experiment","0","7","odd","NA","10099","309522","NA","5583","431230","428225","429227","430229","NA","NA","431230","NA","NA","309523","8099","427209","428726","429728","430730","427172","428210","427072","427172","310523","New experiment","yes","1024"
"<opensesame_plugins.lsl_start.liblsl.LSL_session object at 0x000001E59BB13CC0>","1","black","[0.0, 0.0]","legacy","0","uniform","101","0","2","0","0","101","101","101","101","2","NA","101","NA","0","2","0","101","101","101","101","101","NA","101","101","2","Wed Nov 17 22:08:42 2021","-7","The main experiment item","yes","experiment.osexp","C:/Users/elus/Demant/+Team OMEXP - Article/ISAAR 2021/Data/experiments","no","mono","no","18","no","white","no","Next","400","no","768","29","2","29","C:/Users/elus/Documents/RecordingLSL_maybefinal/subject-7.csv","10","[<opensesame_plugins.lsl_start.liblsl.LSL_session object at 0x000001E59BB13CC0>]","Kafkaesque Koffka","3.2.7","3","0","2","1024","2","48000","-16","experiment","0","7","odd","NA","10099","309522","NA","5583","435483","432477","433480","434482","NA","NA","435483","NA","NA","309523","8099","431468","432978","433981","434983","431328","432468","431232","431328","310523","New experiment","yes","1024"
"<opensesame_plugins.lsl_start.liblsl.LSL_session object at 0x000001E59BB13CC0>","1","black","[0.0, 0.0]","legacy","0","uniform","102","0","2","0","0","102","102","102","102","2","NA","102","NA","0","2","0","102","102","102","102","102","NA","102","102","2","Wed Nov 17 22:08:42 2021","-7","The main experiment item","yes","experiment.osexp","C:/Users/elus/Demant/+Team OMEXP - Article/ISAAR 2021/Data/experiments","no","mono","no","18","no","white","no","Next","400","no","768","30","2","30","C:/Users/elus/Documents/RecordingLSL_maybefinal/subject-7.csv","10","[<opensesame_plugins.lsl_start.liblsl.LSL_session object at 0x000001E59BB13CC0>]","Kafkaesque Koffka","3.2.7","1","0","2","1024","2","48000","-16","experiment","0","7","odd","NA","10099","309522","NA","5583","439613","436607","437609","438611","NA","NA","439613","NA","NA","309523","8099","435597","437108","438110","439113","435567","436598","435486","435567","310523","New experiment","yes","1024"
