"LSL","answer","background","calibration","canvas_backend","compensation","coordinates","count_change","count_cond_loop","count_condition","count_end","count_experiment","count_generate_answer","count_neutral","count_neutral_2","count_neutral_3","count_new_adaptive_init","count_new_calibration_light","count_new_logger","count_new_lsl_start_1","count_new_lsl_stop","count_new_sketchpad","count_new_sketchpad_1","count_new_sketchpad_2","count_sig1","count_sig2","count_sig3","count_sound_generation","count_stimulus","count_tracking","count_trial","count_trial_loop","datetime","depth","description","disable_garbage_collection","experiment_file","experiment_path","font_bold","font_family","font_italic","font_size","font_underline","foreground","form_clicks","form_response","frequency","fullscreen","height","live_row","live_row_cond_loop","live_row_trial_loop","logfile","mod_freq","notifiers","opensesame_codename","opensesame_version","position","repeat_cycle","round_decimals","sound_buf_size","sound_channels","sound_freq","sound_sample_size","start","stop","subject_nr","subject_parity","time_change","time_cond_loop","time_condition","time_end","time_experiment","time_generate_answer","time_neutral","time_neutral_2","time_neutral_3","time_new_adaptive_init","time_new_calibration_light","time_new_logger","time_new_lsl_start_1","time_new_lsl_stop","time_new_sketchpad","time_new_sketchpad_1","time_new_sketchpad_2","time_sig1","time_sig2","time_sig3","time_sound_generation","time_stimulus","time_tracking","time_trial","time_trial_loop","title","uniform_coordinates","width"
"<opensesame_plugins.lsl_start.liblsl.LSL_session object at 0x0000011CA6C73C88>","1","black","[0.0, 0.0]","legacy","0","uniform","0","0","0","0","0","0","0","0","0","0","NA","0","NA","0","0","0","0","0","0","0","0","NA","0","0","0","Wed Nov 17 13:14:40 2021","-6","The main experiment item","yes","experiment.osexp","C:/Users/elus/Demant/+Team OMEXP - Article/ISAAR 2021/Data/experiments","no","mono","no","18","no","white","no","Next","400","no","768","0","0","0","C:/Users/elus/Documents/RecordingLSL_maybefinal/subject-1.csv","5","[<opensesame_plugins.lsl_start.liblsl.LSL_session object at 0x0000011CA6C73C88>]","Kafkaesque Koffka","3.2.7","1","0","2","1024","2","48000","-16","experiment","0","1","odd","NA","19930","19967","NA","6002","25131","22111","23122","24129","NA","NA","25134","NA","NA","19968","17930","21098","22612","23623","24631","21018","22102","NA","21018","20968","New experiment","yes","1024"
"<opensesame_plugins.lsl_start.liblsl.LSL_session object at 0x0000011CA6C73C88>","1","black","[0.0, 0.0]","legacy","0","uniform","1","0","0","0","0","1","1","1","1","0","NA","1","NA","0","0","0","1","1","1","1","1","NA","1","1","0","Wed Nov 17 13:14:40 2021","-6","The main experiment item","yes","experiment.osexp","C:/Users/elus/Demant/+Team OMEXP - Article/ISAAR 2021/Data/experiments","no","mono","no","18","no","white","no","Next","400","no","768","1","0","1","C:/Users/elus/Documents/RecordingLSL_maybefinal/subject-1.csv","5","[<opensesame_plugins.lsl_start.liblsl.LSL_session object at 0x0000011CA6C73C88>]","Kafkaesque Koffka","3.2.7","2","0","2","1024","2","48000","-16","experiment","0","1","odd","NA","19930","19967","NA","6002","29326","26315","27320","28323","NA","NA","29327","NA","NA","19968","17930","25291","26816","27821","28826","25250","26291","25155","25250","20968","New experiment","yes","1024"
"<opensesame_plugins.lsl_start.liblsl.LSL_session object at 0x0000011CA6C73C88>","1","black","[0.0, 0.0]","legacy","0","uniform","2","0","0","0","0","2","2","2","2","0","NA","2","NA","0","0","0","2","2","2","2","2","NA","2","2","0","Wed Nov 17 13:14:40 2021","-6","The main experiment item","yes","experiment.osexp","C:/Users/elus/Demant/+Team OMEXP - Article/ISAAR 2021/Data/experiments","no","mono","no","18","no","white","no","Next","400","no","768","2","0","2","C:/Users/elus/Documents/RecordingLSL_maybefinal/subject-1.csv","5","[<opensesame_plugins.lsl_start.liblsl.LSL_session object at 0x0000011CA6C73C88>]","Kafkaesque Koffka","3.2.7","3","0","2","1024","2","48000","-16","experiment","0","1","odd","NA","19930","19967","NA","6002","33553","30545","31549","32552","NA","NA","33553","NA","NA","19968","17930","29531","31046","32051","33053","29482","30531","29331","29480","20968","New experiment","yes","1024"
"<opensesame_plugins.lsl_start.liblsl.LSL_session object at 0x0000011CA6C73C88>","0","black","[0.0, 0.0]","legacy","0","uniform","3","0","0","0","0","3","3","3","3","0","NA","3","NA","0","0","0","3","3","3","3","3","NA","3","3","0","Wed Nov 17 13:14:40 2021","-7","The main experiment item","yes","experiment.osexp","C:/Users/elus/Demant/+Team OMEXP - Article/ISAAR 2021/Data/experiments","no","mono","no","18","no","white","no","Next","400","no","768","3","0","3","C:/Users/elus/Documents/RecordingLSL_maybefinal/subject-1.csv","5","[<opensesame_plugins.lsl_start.liblsl.LSL_session object at 0x0000011CA6C73C88>]","Kafkaesque Koffka","3.2.7","1","0","2","1024","2","48000","-16","experiment","0","1","odd","NA","19930","19967","NA","6002","37788","34780","35782","36786","NA","NA","37788","NA","NA","19968","17930","33745","35281","36284","37288","33703","34745","33558","33703","20968","New experiment","yes","1024"
"<opensesame_plugins.lsl_start.liblsl.LSL_session object at 0x0000011CA6C73C88>","1","black","[0.0, 0.0]","legacy","0","uniform","4","0","0","0","0","4","4","4","4","0","NA","4","NA","0","0","0","4","4","4","4","4","NA","4","4","0","Wed Nov 17 13:14:40 2021","-6.5","The main experiment item","yes","experiment.osexp","C:/Users/elus/Demant/+Team OMEXP - Article/ISAAR 2021/Data/experiments","no","mono","no","18","no","white","no","Next","400","no","768","4","0","4","C:/Users/elus/Documents/RecordingLSL_maybefinal/subject-1.csv","5","[<opensesame_plugins.lsl_start.liblsl.LSL_session object at 0x0000011CA6C73C88>]","Kafkaesque Koffka","3.2.7","2","0","2","1024","2","48000","-16","experiment","0","1","odd","NA","19930","19967","NA","6002","42004","38997","40001","41003","NA","NA","42004","NA","NA","19968","17930","37980","39499","40502","41504","37930","38981","37790","37927","20968","New experiment","yes","1024"
"<opensesame_plugins.lsl_start.liblsl.LSL_session object at 0x0000011CA6C73C88>","1","black","[0.0, 0.0]","legacy","0","uniform","5","0","0","0","0","5","5","5","5","0","NA","5","NA","0","0","0","5","5","5","5","5","NA","5","5","0","Wed Nov 17 13:14:40 2021","-6.5","The main experiment item","yes","experiment.osexp","C:/Users/elus/Demant/+Team OMEXP - Article/ISAAR 2021/Data/experiments","no","mono","no","18","no","white","no","Next","400","no","768","5","0","5","C:/Users/elus/Documents/RecordingLSL_maybefinal/subject-1.csv","5","[<opensesame_plugins.lsl_start.liblsl.LSL_session object at 0x0000011CA6C73C88>]","Kafkaesque Koffka","3.2.7","3","0","2","1024","2","48000","-16","experiment","0","1","odd","NA","19930","19967","NA","6002","46191","43186","44188","45190","NA","NA","46191","NA","NA","19968","17930","42160","43687","44689","45691","42119","43160","42006","42119","20968","New experiment","yes","1024"
"<opensesame_plugins.lsl_start.liblsl.LSL_session object at 0x0000011CA6C73C88>","1","black","[0.0, 0.0]","legacy","0","uniform","6","0","0","0","0","6","6","6","6","0","NA","6","NA","0","0","0","6","6","6","6","6","NA","6","6","0","Wed Nov 17 13:14:40 2021","-6.5","The main experiment item","yes","experiment.osexp","C:/Users/elus/Demant/+Team OMEXP - Article/ISAAR 2021/Data/experiments","no","mono","no","18","no","white","no","Next","400","no","768","6","0","6","C:/Users/elus/Documents/RecordingLSL_maybefinal/subject-1.csv","5","[<opensesame_plugins.lsl_start.liblsl.LSL_session object at 0x0000011CA6C73C88>]","Kafkaesque Koffka","3.2.7","1","0","2","1024","2","48000","-16","experiment","0","1","odd","NA","19930","19967","NA","6002","50387","47376","48384","49386","NA","NA","50387","NA","NA","19968","17930","46348","47877","48885","49887","46304","47348","46193","46304","20968","New experiment","yes","1024"
"<opensesame_plugins.lsl_start.liblsl.LSL_session object at 0x0000011CA6C73C88>","1","black","[0.0, 0.0]","legacy","0","uniform","7","0","0","0","0","7","7","7","7","0","NA","7","NA","0","0","0","7","7","7","7","7","NA","7","7","0","Wed Nov 17 13:14:40 2021","-7","The main experiment item","yes","experiment.osexp","C:/Users/elus/Demant/+Team OMEXP - Article/ISAAR 2021/Data/experiments","no","mono","no","18","no","white","no","Next","400","no","768","7","0","7","C:/Users/elus/Documents/RecordingLSL_maybefinal/subject-1.csv","5","[<opensesame_plugins.lsl_start.liblsl.LSL_session object at 0x0000011CA6C73C88>]","Kafkaesque Koffka","3.2.7","2","0","2","1024","2","48000","-16","experiment","0","1","odd","NA","19930","19967","NA","6002","54577","51568","52573","53575","NA","NA","54577","NA","NA","19968","17930","50549","52071","53074","54077","50504","51549","50389","50504","20968","New experiment","yes","1024"
"<opensesame_plugins.lsl_start.liblsl.LSL_session object at 0x0000011CA6C73C88>","0","black","[0.0, 0.0]","legacy","0","uniform","8","0","0","0","0","8","8","8","8","0","NA","8","NA","0","0","0","8","8","8","8","8","NA","8","8","0","Wed Nov 17 13:14:40 2021","-7","The main experiment item","yes","experiment.osexp","C:/Users/elus/Demant/+Team OMEXP - Article/ISAAR 2021/Data/experiments","no","mono","no","18","no","white","no","Next","400","no","768","8","0","8","C:/Users/elus/Documents/RecordingLSL_maybefinal/subject-1.csv","5","[<opensesame_plugins.lsl_start.liblsl.LSL_session object at 0x0000011CA6C73C88>]","Kafkaesque Koffka","3.2.7","3","0","2","1024","2","48000","-16","experiment","0","1","odd","NA","19930","19967","NA","6002","58774","55767","56771","57773","NA","NA","58774","NA","NA","19968","17930","54738","56268","57272","58274","54696","55738","54579","54696","20968","New experiment","yes","1024"
"<opensesame_plugins.lsl_start.liblsl.LSL_session object at 0x0000011CA6C73C88>","1","black","[0.0, 0.0]","legacy","0","uniform","9","0","0","0","0","9","9","9","9","0","NA","9","NA","0","0","0","9","9","9","9","9","NA","9","9","0","Wed Nov 17 13:14:40 2021","-6.5","The main experiment item","yes","experiment.osexp","C:/Users/elus/Demant/+Team OMEXP - Article/ISAAR 2021/Data/experiments","no","mono","no","18","no","white","no","Next","400","no","768","9","0","9","C:/Users/elus/Documents/RecordingLSL_maybefinal/subject-1.csv","5","[<opensesame_plugins.lsl_start.liblsl.LSL_session object at 0x0000011CA6C73C88>]","Kafkaesque Koffka","3.2.7","1","0","2","1024","2","48000","-16","experiment","0","1","odd","NA","19930","19967","NA","6002","62970","59957","60966","61968","NA","NA","62970","NA","NA","19968","17930","58930","60458","61467","62470","58887","59930","58776","58887","20968","New experiment","yes","1024"
"<opensesame_plugins.lsl_start.liblsl.LSL_session object at 0x0000011CA6C73C88>","1","black","[0.0, 0.0]","legacy","0","uniform","10","0","0","0","0","10","10","10","10","0","NA","10","NA","0","0","0","10","10","10","10","10","NA","10","10","0","Wed Nov 17 13:14:40 2021","-6.5","The main experiment item","yes","experiment.osexp","C:/Users/elus/Demant/+Team OMEXP - Article/ISAAR 2021/Data/experiments","no","mono","no","18","no","white","no","Next","400","no","768","10","0","10","C:/Users/elus/Documents/RecordingLSL_maybefinal/subject-1.csv","5","[<opensesame_plugins.lsl_start.liblsl.LSL_session object at 0x0000011CA6C73C88>]","Kafkaesque Koffka","3.2.7","2","0","2","1024","2","48000","-16","experiment","0","1","odd","NA","19930","19967","NA","6002","67166","64154","65163","66165","NA","NA","67166","NA","NA","19968","17930","63128","64655","65664","66666","63087","64128","62973","63086","20968","New experiment","yes","1024"
"<opensesame_plugins.lsl_start.liblsl.LSL_session object at 0x0000011CA6C73C88>","1","black","[0.0, 0.0]","legacy","0","uniform","11","0","0","0","0","11","11","11","11","0","NA","11","NA","0","0","0","11","11","11","11","11","NA","11","11","0","Wed Nov 17 13:14:40 2021","-6.5","The main experiment item","yes","experiment.osexp","C:/Users/elus/Demant/+Team OMEXP - Article/ISAAR 2021/Data/experiments","no","mono","no","18","no","white","no","Next","400","no","768","11","0","11","C:/Users/elus/Documents/RecordingLSL_maybefinal/subject-1.csv","5","[<opensesame_plugins.lsl_start.liblsl.LSL_session object at 0x0000011CA6C73C88>]","Kafkaesque Koffka","3.2.7","3","0","2","1024","2","48000","-16","experiment","0","1","odd","NA","19930","19967","NA","6002","71358","68353","69355","70357","NA","NA","71358","NA","NA","19968","17930","67337","68854","69856","70858","67285","68339","67168","67285","20968","New experiment","yes","1024"
"<opensesame_plugins.lsl_start.liblsl.LSL_session object at 0x0000011CA6C73C88>","1","black","[0.0, 0.0]","legacy","0","uniform","12","0","0","0","0","12","12","12","12","0","NA","12","NA","0","0","0","12","12","12","12","12","NA","12","12","0","Wed Nov 17 13:14:40 2021","-7","The main experiment item","yes","experiment.osexp","C:/Users/elus/Demant/+Team OMEXP - Article/ISAAR 2021/Data/experiments","no","mono","no","18","no","white","no","Next","400","no","768","12","0","12","C:/Users/elus/Documents/RecordingLSL_maybefinal/subject-1.csv","5","[<opensesame_plugins.lsl_start.liblsl.LSL_session object at 0x0000011CA6C73C88>]","Kafkaesque Koffka","3.2.7","1","0","2","1024","2","48000","-16","experiment","0","1","odd","NA","19930","19967","NA","6002","75569","72560","73562","74568","NA","NA","75569","NA","NA","19968","17930","71541","73061","74063","75069","71494","72542","71360","71492","20968","New experiment","yes","1024"
"<opensesame_plugins.lsl_start.liblsl.LSL_session object at 0x0000011CA6C73C88>","1","black","[0.0, 0.0]","legacy","0","uniform","13","0","0","0","0","13","13","13","13","0","NA","13","NA","0","0","0","13","13","13","13","13","NA","13","13","0","Wed Nov 17 13:14:40 2021","-7","The main experiment item","yes","experiment.osexp","C:/Users/elus/Demant/+Team OMEXP - Article/ISAAR 2021/Data/experiments","no","mono","no","18","no","white","no","Next","400","no","768","13","0","13","C:/Users/elus/Documents/RecordingLSL_maybefinal/subject-1.csv","5","[<opensesame_plugins.lsl_start.liblsl.LSL_session object at 0x0000011CA6C73C88>]","Kafkaesque Koffka","3.2.7","2","0","2","1024","2","48000","-16","experiment","0","1","odd","NA","19930","19967","NA","6002","79775","76768","77771","78773","NA","NA","79775","NA","NA","19968","17930","75740","77269","78272","79275","75692","76740","75571","75692","20968","New experiment","yes","1024"
"<opensesame_plugins.lsl_start.liblsl.LSL_session object at 0x0000011CA6C73C88>","1","black","[0.0, 0.0]","legacy","0","uniform","14","0","0","0","0","14","14","14","14","0","NA","14","NA","0","0","0","14","14","14","14","14","NA","14","14","0","Wed Nov 17 13:14:40 2021","-7","The main experiment item","yes","experiment.osexp","C:/Users/elus/Demant/+Team OMEXP - Article/ISAAR 2021/Data/experiments","no","mono","no","18","no","white","no","Next","400","no","768","14","0","14","C:/Users/elus/Documents/RecordingLSL_maybefinal/subject-1.csv","5","[<opensesame_plugins.lsl_start.liblsl.LSL_session object at 0x0000011CA6C73C88>]","Kafkaesque Koffka","3.2.7","3","0","2","1024","2","48000","-16","experiment","0","1","odd","NA","19930","19967","NA","6002","83982","80973","81975","82980","NA","NA","83982","NA","NA","19968","17930","79957","81474","82478","83482","79909","80957","79780","79908","20968","New experiment","yes","1024"
"<opensesame_plugins.lsl_start.liblsl.LSL_session object at 0x0000011CA6C73C88>","1","black","[0.0, 0.0]","legacy","0","uniform","15","0","0","0","0","15","15","15","15","0","NA","15","NA","0","0","0","15","15","15","15","15","NA","15","15","0","Wed Nov 17 13:14:40 2021","-7.5","The main experiment item","yes","experiment.osexp","C:/Users/elus/Demant/+Team OMEXP - Article/ISAAR 2021/Data/experiments","no","mono","no","18","no","white","no","Next","400","no","768","15","0","15","C:/Users/elus/Documents/RecordingLSL_maybefinal/subject-1.csv","5","[<opensesame_plugins.lsl_start.liblsl.LSL_session object at 0x0000011CA6C73C88>]","Kafkaesque Koffka","3.2.7","1","0","2","1024","2","48000","-16","experiment","0","1","odd","NA","19930","19967","NA","6002","88184","85173","86181","87183","NA","NA","88184","NA","NA","19968","17930","84157","85674","86682","87684","84114","85157","83984","84114","20968","New experiment","yes","1024"
"<opensesame_plugins.lsl_start.liblsl.LSL_session object at 0x0000011CA6C73C88>","0","black","[0.0, 0.0]","legacy","0","uniform","16","0","0","0","0","16","16","16","16","0","NA","16","NA","0","0","0","16","16","16","16","16","NA","16","16","0","Wed Nov 17 13:14:40 2021","-7.5","The main experiment item","yes","experiment.osexp","C:/Users/elus/Demant/+Team OMEXP - Article/ISAAR 2021/Data/experiments","no","mono","no","18","no","white","no","Next","400","no","768","16","0","16","C:/Users/elus/Documents/RecordingLSL_maybefinal/subject-1.csv","5","[<opensesame_plugins.lsl_start.liblsl.LSL_session object at 0x0000011CA6C73C88>]","Kafkaesque Koffka","3.2.7","2","0","2","1024","2","48000","-16","experiment","0","1","odd","NA","19930","19967","NA","6002","92385","89372","90380","91384","NA","NA","92385","NA","NA","19968","17930","88352","89878","90881","91885","88305","89352","88186","88305","20968","New experiment","yes","1024"
"<opensesame_plugins.lsl_start.liblsl.LSL_session object at 0x0000011CA6C73C88>","1","black","[0.0, 0.0]","legacy","0","uniform","17","0","0","0","0","17","17","17","17","0","NA","17","NA","0","0","0","17","17","17","17","17","NA","17","17","0","Wed Nov 17 13:14:40 2021","-7","The main experiment item","yes","experiment.osexp","C:/Users/elus/Demant/+Team OMEXP - Article/ISAAR 2021/Data/experiments","no","mono","no","18","no","white","no","Next","400","no","768","17","0","17","C:/Users/elus/Documents/RecordingLSL_maybefinal/subject-1.csv","5","[<opensesame_plugins.lsl_start.liblsl.LSL_session object at 0x0000011CA6C73C88>]","Kafkaesque Koffka","3.2.7","3","0","2","1024","2","48000","-16","experiment","0","1","odd","NA","19930","19967","NA","6002","96594","93585","94591","95593","NA","NA","96594","NA","NA","19968","17930","92560","94089","95092","96094","92513","93560","92387","92513","20968","New experiment","yes","1024"
"<opensesame_plugins.lsl_start.liblsl.LSL_session object at 0x0000011CA6C73C88>","1","black","[0.0, 0.0]","legacy","0","uniform","18","0","0","0","0","18","18","18","18","0","NA","18","NA","0","0","0","18","18","18","18","18","NA","18","18","0","Wed Nov 17 13:14:40 2021","-7","The main experiment item","yes","experiment.osexp","C:/Users/elus/Demant/+Team OMEXP - Article/ISAAR 2021/Data/experiments","no","mono","no","18","no","white","no","Next","400","no","768","18","0","18","C:/Users/elus/Documents/RecordingLSL_maybefinal/subject-1.csv","5","[<opensesame_plugins.lsl_start.liblsl.LSL_session object at 0x0000011CA6C73C88>]","Kafkaesque Koffka","3.2.7","1","0","2","1024","2","48000","-16","experiment","0","1","odd","NA","19930","19967","NA","6002","100818","97808","98813","99815","NA","NA","100819","NA","NA","19968","17930","96779","98309","99314","100317","96734","97780","96596","96734","20968","New experiment","yes","1024"
"<opensesame_plugins.lsl_start.liblsl.LSL_session object at 0x0000011CA6C73C88>","1","black","[0.0, 0.0]","legacy","0","uniform","19","0","0","0","0","19","19","19","19","0","NA","19","NA","0","0","0","19","19","19","19","19","NA","19","19","0","Wed Nov 17 13:14:40 2021","-7","The main experiment item","yes","experiment.osexp","C:/Users/elus/Demant/+Team OMEXP - Article/ISAAR 2021/Data/experiments","no","mono","no","18","no","white","no","Next","400","no","768","19","0","19","C:/Users/elus/Documents/RecordingLSL_maybefinal/subject-1.csv","5","[<opensesame_plugins.lsl_start.liblsl.LSL_session object at 0x0000011CA6C73C88>]","Kafkaesque Koffka","3.2.7","2","0","2","1024","2","48000","-16","experiment","0","1","odd","NA","19930","19967","NA","6002","105027","102015","103022","104025","NA","NA","105027","NA","NA","19968","17930","100997","102521","103523","104527","100952","101999","100822","100952","20968","New experiment","yes","1024"
"<opensesame_plugins.lsl_start.liblsl.LSL_session object at 0x0000011CA6C73C88>","1","black","[0.0, 0.0]","legacy","0","uniform","20","0","0","0","0","20","20","20","20","0","NA","20","NA","0","0","0","20","20","20","20","20","NA","20","20","0","Wed Nov 17 13:14:40 2021","-7.5","The main experiment item","yes","experiment.osexp","C:/Users/elus/Demant/+Team OMEXP - Article/ISAAR 2021/Data/experiments","no","mono","no","18","no","white","no","Next","400","no","768","20","0","20","C:/Users/elus/Documents/RecordingLSL_maybefinal/subject-1.csv","5","[<opensesame_plugins.lsl_start.liblsl.LSL_session object at 0x0000011CA6C73C88>]","Kafkaesque Koffka","3.2.7","3","0","2","1024","2","48000","-16","experiment","0","1","odd","NA","19930","19967","NA","6002","109252","106237","107244","108249","NA","NA","109252","NA","NA","19968","17930","105209","106738","107748","108752","105169","106209","105029","105169","20968","New experiment","yes","1024"
"<opensesame_plugins.lsl_start.liblsl.LSL_session object at 0x0000011CA6C73C88>","1","black","[0.0, 0.0]","legacy","0","uniform","21","0","0","0","0","21","21","21","21","0","NA","21","NA","0","0","0","21","21","21","21","21","NA","21","21","0","Wed Nov 17 13:14:40 2021","-7.5","The main experiment item","yes","experiment.osexp","C:/Users/elus/Demant/+Team OMEXP - Article/ISAAR 2021/Data/experiments","no","mono","no","18","no","white","no","Next","400","no","768","21","0","21","C:/Users/elus/Documents/RecordingLSL_maybefinal/subject-1.csv","5","[<opensesame_plugins.lsl_start.liblsl.LSL_session object at 0x0000011CA6C73C88>]","Kafkaesque Koffka","3.2.7","1","0","2","1024","2","48000","-16","experiment","0","1","odd","NA","19930","19967","NA","6002","113471","110464","111467","112470","NA","NA","113471","NA","NA","19968","17930","109434","110965","111968","112971","109390","110434","109254","109389","20968","New experiment","yes","1024"
"<opensesame_plugins.lsl_start.liblsl.LSL_session object at 0x0000011CA6C73C88>","1","black","[0.0, 0.0]","legacy","0","uniform","22","0","0","0","0","22","22","22","22","0","NA","22","NA","0","0","0","22","22","22","22","22","NA","22","22","0","Wed Nov 17 13:14:40 2021","-7.5","The main experiment item","yes","experiment.osexp","C:/Users/elus/Demant/+Team OMEXP - Article/ISAAR 2021/Data/experiments","no","mono","no","18","no","white","no","Next","400","no","768","22","0","22","C:/Users/elus/Documents/RecordingLSL_maybefinal/subject-1.csv","5","[<opensesame_plugins.lsl_start.liblsl.LSL_session object at 0x0000011CA6C73C88>]","Kafkaesque Koffka","3.2.7","2","0","2","1024","2","48000","-16","experiment","0","1","odd","NA","19930","19967","NA","6002","117673","114667","115669","116671","NA","NA","117673","NA","NA","19968","17930","113648","115168","116170","117172","113600","114649","113473","113600","20968","New experiment","yes","1024"
"<opensesame_plugins.lsl_start.liblsl.LSL_session object at 0x0000011CA6C73C88>","0","black","[0.0, 0.0]","legacy","0","uniform","23","0","0","0","0","23","23","23","23","0","NA","23","NA","0","0","0","23","23","23","23","23","NA","23","23","0","Wed Nov 17 13:14:40 2021","-8","The main experiment item","yes","experiment.osexp","C:/Users/elus/Demant/+Team OMEXP - Article/ISAAR 2021/Data/experiments","no","mono","no","18","no","white","no","Next","400","no","768","23","0","23","C:/Users/elus/Documents/RecordingLSL_maybefinal/subject-1.csv","5","[<opensesame_plugins.lsl_start.liblsl.LSL_session object at 0x0000011CA6C73C88>]","Kafkaesque Koffka","3.2.7","3","0","2","1024","2","48000","-16","experiment","0","1","odd","NA","19930","19967","NA","6002","121869","118860","119863","120867","NA","NA","121869","NA","NA","19968","17930","117841","119361","120365","121369","117798","118843","117678","117798","20968","New experiment","yes","1024"
"<opensesame_plugins.lsl_start.liblsl.LSL_session object at 0x0000011CA6C73C88>","1","black","[0.0, 0.0]","legacy","0","uniform","24","0","0","0","0","24","24","24","24","0","NA","24","NA","0","0","0","24","24","24","24","24","NA","24","24","0","Wed Nov 17 13:14:40 2021","-7.5","The main experiment item","yes","experiment.osexp","C:/Users/elus/Demant/+Team OMEXP - Article/ISAAR 2021/Data/experiments","no","mono","no","18","no","white","no","Next","400","no","768","24","0","24","C:/Users/elus/Documents/RecordingLSL_maybefinal/subject-1.csv","5","[<opensesame_plugins.lsl_start.liblsl.LSL_session object at 0x0000011CA6C73C88>]","Kafkaesque Koffka","3.2.7","1","0","2","1024","2","48000","-16","experiment","0","1","odd","NA","19930","19967","NA","6002","126077","123057","124070","125076","NA","NA","126077","NA","NA","19968","17930","122035","123559","124573","125577","121994","123035","121872","121994","20968","New experiment","yes","1024"
"<opensesame_plugins.lsl_start.liblsl.LSL_session object at 0x0000011CA6C73C88>","1","black","[0.0, 0.0]","legacy","0","uniform","25","0","0","0","0","25","25","25","25","0","NA","25","NA","0","0","0","25","25","25","25","25","NA","25","25","0","Wed Nov 17 13:14:40 2021","-7.5","The main experiment item","yes","experiment.osexp","C:/Users/elus/Demant/+Team OMEXP - Article/ISAAR 2021/Data/experiments","no","mono","no","18","no","white","no","Next","400","no","768","25","0","25","C:/Users/elus/Documents/RecordingLSL_maybefinal/subject-1.csv","5","[<opensesame_plugins.lsl_start.liblsl.LSL_session object at 0x0000011CA6C73C88>]","Kafkaesque Koffka","3.2.7","2","0","2","1024","2","48000","-16","experiment","0","1","odd","NA","19930","19967","NA","6002","130294","127282","128289","129292","NA","NA","130294","NA","NA","19968","17930","126266","127783","128791","129794","126218","127269","126079","126218","20968","New experiment","yes","1024"
"<opensesame_plugins.lsl_start.liblsl.LSL_session object at 0x0000011CA6C73C88>","0","black","[0.0, 0.0]","legacy","0","uniform","26","0","0","0","0","26","26","26","26","0","NA","26","NA","0","0","0","26","26","26","26","26","NA","26","26","0","Wed Nov 17 13:14:40 2021","-7.5","The main experiment item","yes","experiment.osexp","C:/Users/elus/Demant/+Team OMEXP - Article/ISAAR 2021/Data/experiments","no","mono","no","18","no","white","no","Next","400","no","768","26","0","26","C:/Users/elus/Documents/RecordingLSL_maybefinal/subject-1.csv","5","[<opensesame_plugins.lsl_start.liblsl.LSL_session object at 0x0000011CA6C73C88>]","Kafkaesque Koffka","3.2.7","3","0","2","1024","2","48000","-16","experiment","0","1","odd","NA","19930","19967","NA","6002","134493","131485","132489","133491","NA","NA","134493","NA","NA","19968","17930","130471","131986","132990","133992","130423","131472","130296","130423","20968","New experiment","yes","1024"
"<opensesame_plugins.lsl_start.liblsl.LSL_session object at 0x0000011CA6C73C88>","1","black","[0.0, 0.0]","legacy","0","uniform","27","0","0","0","0","27","27","27","27","0","NA","27","NA","0","0","0","27","27","27","27","27","NA","27","27","0","Wed Nov 17 13:14:40 2021","-7","The main experiment item","yes","experiment.osexp","C:/Users/elus/Demant/+Team OMEXP - Article/ISAAR 2021/Data/experiments","no","mono","no","18","no","white","no","Next","400","no","768","27","0","27","C:/Users/elus/Documents/RecordingLSL_maybefinal/subject-1.csv","5","[<opensesame_plugins.lsl_start.liblsl.LSL_session object at 0x0000011CA6C73C88>]","Kafkaesque Koffka","3.2.7","1","0","2","1024","2","48000","-16","experiment","0","1","odd","NA","19930","19967","NA","6002","138699","135690","136692","137694","NA","NA","138699","NA","NA","19968","17930","134669","136191","137193","138199","134622","135669","134495","134622","20968","New experiment","yes","1024"
"<opensesame_plugins.lsl_start.liblsl.LSL_session object at 0x0000011CA6C73C88>","1","black","[0.0, 0.0]","legacy","0","uniform","28","0","0","0","0","28","28","28","28","0","NA","28","NA","0","0","0","28","28","28","28","28","NA","28","28","0","Wed Nov 17 13:14:40 2021","-7","The main experiment item","yes","experiment.osexp","C:/Users/elus/Demant/+Team OMEXP - Article/ISAAR 2021/Data/experiments","no","mono","no","18","no","white","no","Next","400","no","768","28","0","28","C:/Users/elus/Documents/RecordingLSL_maybefinal/subject-1.csv","5","[<opensesame_plugins.lsl_start.liblsl.LSL_session object at 0x0000011CA6C73C88>]","Kafkaesque Koffka","3.2.7","2","0","2","1024","2","48000","-16","experiment","0","1","odd","NA","19930","19967","NA","6002","142908","139901","140905","141907","NA","NA","142908","NA","NA","19968","17930","138867","140402","141406","142408","138823","139867","138701","138822","20968","New experiment","yes","1024"
"<opensesame_plugins.lsl_start.liblsl.LSL_session object at 0x0000011CA6C73C88>","0","black","[0.0, 0.0]","legacy","0","uniform","29","0","0","0","0","29","29","29","29","0","NA","29","NA","0","0","0","29","29","29","29","29","NA","29","29","0","Wed Nov 17 13:14:40 2021","-7","The main experiment item","yes","experiment.osexp","C:/Users/elus/Demant/+Team OMEXP - Article/ISAAR 2021/Data/experiments","no","mono","no","18","no","white","no","Next","400","no","768","29","0","29","C:/Users/elus/Documents/RecordingLSL_maybefinal/subject-1.csv","5","[<opensesame_plugins.lsl_start.liblsl.LSL_session object at 0x0000011CA6C73C88>]","Kafkaesque Koffka","3.2.7","3","0","2","1024","2","48000","-16","experiment","0","1","odd","NA","19930","19967","NA","6002","147106","144101","145103","146105","NA","NA","147106","NA","NA","19968","17930","143080","144602","145604","146606","143037","144082","142912","143037","20968","New experiment","yes","1024"
"<opensesame_plugins.lsl_start.liblsl.LSL_session object at 0x0000011CA6C73C88>","1","black","[0.0, 0.0]","legacy","0","uniform","30","0","0","0","0","30","30","30","30","0","NA","30","NA","0","0","0","30","30","30","30","30","NA","30","30","0","Wed Nov 17 13:14:40 2021","-6.5","The main experiment item","yes","experiment.osexp","C:/Users/elus/Demant/+Team OMEXP - Article/ISAAR 2021/Data/experiments","no","mono","no","18","no","white","no","Next","400","no","768","30","0","30","C:/Users/elus/Documents/RecordingLSL_maybefinal/subject-1.csv","5","[<opensesame_plugins.lsl_start.liblsl.LSL_session object at 0x0000011CA6C73C88>]","Kafkaesque Koffka","3.2.7","1","0","2","1024","2","48000","-16","experiment","0","1","odd","NA","19930","19967","NA","6002","151315","148307","149312","150314","NA","NA","151315","NA","NA","19968","17930","147285","148810","149813","150815","147243","148285","147110","147243","20968","New experiment","yes","1024"
"<opensesame_plugins.lsl_start.liblsl.LSL_session object at 0x0000011CA6C73C88>","1","black","[0.0, 0.0]","legacy","0","uniform","31","0","0","0","0","31","31","31","31","0","NA","31","NA","0","0","0","31","31","31","31","31","NA","31","31","0","Wed Nov 17 13:14:40 2021","-6.5","The main experiment item","yes","experiment.osexp","C:/Users/elus/Demant/+Team OMEXP - Article/ISAAR 2021/Data/experiments","no","mono","no","18","no","white","no","Next","400","no","768","31","0","31","C:/Users/elus/Documents/RecordingLSL_maybefinal/subject-1.csv","5","[<opensesame_plugins.lsl_start.liblsl.LSL_session object at 0x0000011CA6C73C88>]","Kafkaesque Koffka","3.2.7","2","0","2","1024","2","48000","-16","experiment","0","1","odd","NA","19930","19967","NA","6002","155530","152513","153526","154529","NA","NA","155530","NA","NA","19968","17930","151485","153014","154027","155030","151445","152485","151317","151445","20968","New experiment","yes","1024"
"<opensesame_plugins.lsl_start.liblsl.LSL_session object at 0x0000011CA6C73C88>","1","black","[0.0, 0.0]","legacy","0","uniform","32","0","0","0","0","32","32","32","32","0","NA","32","NA","0","0","0","32","32","32","32","32","NA","32","32","0","Wed Nov 17 13:14:40 2021","-6.5","The main experiment item","yes","experiment.osexp","C:/Users/elus/Demant/+Team OMEXP - Article/ISAAR 2021/Data/experiments","no","mono","no","18","no","white","no","Next","400","no","768","32","0","32","C:/Users/elus/Documents/RecordingLSL_maybefinal/subject-1.csv","5","[<opensesame_plugins.lsl_start.liblsl.LSL_session object at 0x0000011CA6C73C88>]","Kafkaesque Koffka","3.2.7","3","0","2","1024","2","48000","-16","experiment","0","1","odd","NA","19930","19967","NA","6002","159737","156728","157730","158733","NA","NA","159737","NA","NA","19968","17930","155709","157229","158231","159237","155662","156711","155532","155662","20968","New experiment","yes","1024"
"<opensesame_plugins.lsl_start.liblsl.LSL_session object at 0x0000011CA6C73C88>","1","black","[0.0, 0.0]","legacy","0","uniform","33","0","0","0","0","33","33","33","33","0","NA","33","NA","0","0","0","33","33","33","33","33","NA","33","33","0","Wed Nov 17 13:14:40 2021","-7","The main experiment item","yes","experiment.osexp","C:/Users/elus/Demant/+Team OMEXP - Article/ISAAR 2021/Data/experiments","no","mono","no","18","no","white","no","Next","400","no","768","33","0","33","C:/Users/elus/Documents/RecordingLSL_maybefinal/subject-1.csv","5","[<opensesame_plugins.lsl_start.liblsl.LSL_session object at 0x0000011CA6C73C88>]","Kafkaesque Koffka","3.2.7","1","0","2","1024","2","48000","-16","experiment","0","1","odd","NA","19930","19967","NA","6002","163944","160938","161941","162943","NA","NA","163944","NA","NA","19968","17930","159919","161440","162442","163444","159863","160920","159739","159863","20968","New experiment","yes","1024"
"<opensesame_plugins.lsl_start.liblsl.LSL_session object at 0x0000011CA6C73C88>","1","black","[0.0, 0.0]","legacy","0","uniform","34","0","0","0","0","34","34","34","34","0","NA","34","NA","0","0","0","34","34","34","34","34","NA","34","34","0","Wed Nov 17 13:14:40 2021","-7","The main experiment item","yes","experiment.osexp","C:/Users/elus/Demant/+Team OMEXP - Article/ISAAR 2021/Data/experiments","no","mono","no","18","no","white","no","Next","400","no","768","34","0","34","C:/Users/elus/Documents/RecordingLSL_maybefinal/subject-1.csv","5","[<opensesame_plugins.lsl_start.liblsl.LSL_session object at 0x0000011CA6C73C88>]","Kafkaesque Koffka","3.2.7","2","0","2","1024","2","48000","-16","experiment","0","1","odd","NA","19930","19967","NA","6002","168174","165159","166169","167172","NA","NA","168174","NA","NA","19968","17930","164129","165662","166670","167673","164086","165129","163946","164086","20968","New experiment","yes","1024"
"<opensesame_plugins.lsl_start.liblsl.LSL_session object at 0x0000011CA6C73C88>","1","black","[0.0, 0.0]","legacy","0","uniform","35","0","0","0","0","35","35","35","35","0","NA","35","NA","0","0","0","35","35","35","35","35","NA","35","35","0","Wed Nov 17 13:14:40 2021","-7","The main experiment item","yes","experiment.osexp","C:/Users/elus/Demant/+Team OMEXP - Article/ISAAR 2021/Data/experiments","no","mono","no","18","no","white","no","Next","400","no","768","35","0","35","C:/Users/elus/Documents/RecordingLSL_maybefinal/subject-1.csv","5","[<opensesame_plugins.lsl_start.liblsl.LSL_session object at 0x0000011CA6C73C88>]","Kafkaesque Koffka","3.2.7","3","0","2","1024","2","48000","-16","experiment","0","1","odd","NA","19930","19967","NA","6002","172391","169385","170388","171390","NA","NA","172391","NA","NA","19968","17930","168370","169887","170889","171891","168320","169371","168183","168320","20968","New experiment","yes","1024"
"<opensesame_plugins.lsl_start.liblsl.LSL_session object at 0x0000011CA6C73C88>","1","black","[0.0, 0.0]","legacy","0","uniform","36","0","1","0","0","36","36","36","36","1","NA","36","NA","0","1","0","36","36","36","36","36","NA","36","36","1","Wed Nov 17 13:14:40 2021","-6","The main experiment item","yes","experiment.osexp","C:/Users/elus/Demant/+Team OMEXP - Article/ISAAR 2021/Data/experiments","no","mono","no","18","no","white","no","Next","1000","no","768","0","1","0","C:/Users/elus/Documents/RecordingLSL_maybefinal/subject-1.csv","5","[<opensesame_plugins.lsl_start.liblsl.LSL_session object at 0x0000011CA6C73C88>]","Kafkaesque Koffka","3.2.7","1","0","2","1024","2","48000","-16","experiment","0","1","odd","NA","19930","172544","NA","6002","177693","174686","175688","176691","NA","NA","177693","NA","NA","172547","17930","173669","175187","176189","177193","173619","174670","172394","173619","173547","New experiment","yes","1024"
"<opensesame_plugins.lsl_start.liblsl.LSL_session object at 0x0000011CA6C73C88>","1","black","[0.0, 0.0]","legacy","0","uniform","37","0","1","0","0","37","37","37","37","1","NA","37","NA","0","1","0","37","37","37","37","37","NA","37","37","1","Wed Nov 17 13:14:40 2021","-6","The main experiment item","yes","experiment.osexp","C:/Users/elus/Demant/+Team OMEXP - Article/ISAAR 2021/Data/experiments","no","mono","no","18","no","white","no","Next","1000","no","768","1","1","1","C:/Users/elus/Documents/RecordingLSL_maybefinal/subject-1.csv","5","[<opensesame_plugins.lsl_start.liblsl.LSL_session object at 0x0000011CA6C73C88>]","Kafkaesque Koffka","3.2.7","2","0","2","1024","2","48000","-16","experiment","0","1","odd","NA","19930","172544","NA","6002","181902","178890","179899","180901","NA","NA","181902","NA","NA","172547","17930","177865","179393","180400","181402","177814","178865","177695","177814","173547","New experiment","yes","1024"
"<opensesame_plugins.lsl_start.liblsl.LSL_session object at 0x0000011CA6C73C88>","1","black","[0.0, 0.0]","legacy","0","uniform","38","0","1","0","0","38","38","38","38","1","NA","38","NA","0","1","0","38","38","38","38","38","NA","38","38","1","Wed Nov 17 13:14:40 2021","-6","The main experiment item","yes","experiment.osexp","C:/Users/elus/Demant/+Team OMEXP - Article/ISAAR 2021/Data/experiments","no","mono","no","18","no","white","no","Next","1000","no","768","2","1","2","C:/Users/elus/Documents/RecordingLSL_maybefinal/subject-1.csv","5","[<opensesame_plugins.lsl_start.liblsl.LSL_session object at 0x0000011CA6C73C88>]","Kafkaesque Koffka","3.2.7","3","0","2","1024","2","48000","-16","experiment","0","1","odd","NA","19930","172544","NA","6002","186114","183104","184110","185113","NA","NA","186114","NA","NA","172547","17930","182086","183608","184612","185614","182041","183087","181904","182041","173547","New experiment","yes","1024"
"<opensesame_plugins.lsl_start.liblsl.LSL_session object at 0x0000011CA6C73C88>","0","black","[0.0, 0.0]","legacy","0","uniform","39","0","1","0","0","39","39","39","39","1","NA","39","NA","0","1","0","39","39","39","39","39","NA","39","39","1","Wed Nov 17 13:14:40 2021","-7","The main experiment item","yes","experiment.osexp","C:/Users/elus/Demant/+Team OMEXP - Article/ISAAR 2021/Data/experiments","no","mono","no","18","no","white","no","Next","1000","no","768","3","1","3","C:/Users/elus/Documents/RecordingLSL_maybefinal/subject-1.csv","5","[<opensesame_plugins.lsl_start.liblsl.LSL_session object at 0x0000011CA6C73C88>]","Kafkaesque Koffka","3.2.7","1","0","2","1024","2","48000","-16","experiment","0","1","odd","NA","19930","172544","NA","6002","190333","187326","188329","189331","NA","NA","190333","NA","NA","172547","17930","186309","187828","188830","189833","186264","187310","186116","186264","173547","New experiment","yes","1024"
"<opensesame_plugins.lsl_start.liblsl.LSL_session object at 0x0000011CA6C73C88>","1","black","[0.0, 0.0]","legacy","0","uniform","40","0","1","0","0","40","40","40","40","1","NA","40","NA","0","1","0","40","40","40","40","40","NA","40","40","1","Wed Nov 17 13:14:40 2021","-6.5","The main experiment item","yes","experiment.osexp","C:/Users/elus/Demant/+Team OMEXP - Article/ISAAR 2021/Data/experiments","no","mono","no","18","no","white","no","Next","1000","no","768","4","1","4","C:/Users/elus/Documents/RecordingLSL_maybefinal/subject-1.csv","5","[<opensesame_plugins.lsl_start.liblsl.LSL_session object at 0x0000011CA6C73C88>]","Kafkaesque Koffka","3.2.7","2","0","2","1024","2","48000","-16","experiment","0","1","odd","NA","19930","172544","NA","6002","194546","191540","192543","193545","NA","NA","194546","NA","NA","172547","17930","190509","192041","193044","194046","190469","191510","190337","190469","173547","New experiment","yes","1024"
"<opensesame_plugins.lsl_start.liblsl.LSL_session object at 0x0000011CA6C73C88>","1","black","[0.0, 0.0]","legacy","0","uniform","41","0","1","0","0","41","41","41","41","1","NA","41","NA","0","1","0","41","41","41","41","41","NA","41","41","1","Wed Nov 17 13:14:40 2021","-6.5","The main experiment item","yes","experiment.osexp","C:/Users/elus/Demant/+Team OMEXP - Article/ISAAR 2021/Data/experiments","no","mono","no","18","no","white","no","Next","1000","no","768","5","1","5","C:/Users/elus/Documents/RecordingLSL_maybefinal/subject-1.csv","5","[<opensesame_plugins.lsl_start.liblsl.LSL_session object at 0x0000011CA6C73C88>]","Kafkaesque Koffka","3.2.7","3","0","2","1024","2","48000","-16","experiment","0","1","odd","NA","19930","172544","NA","6002","198754","195743","196750","197753","NA","NA","198754","NA","NA","172547","17930","194727","196244","197252","198254","194678","195728","194550","194678","173547","New experiment","yes","1024"
"<opensesame_plugins.lsl_start.liblsl.LSL_session object at 0x0000011CA6C73C88>","1","black","[0.0, 0.0]","legacy","0","uniform","42","0","1","0","0","42","42","42","42","1","NA","42","NA","0","1","0","42","42","42","42","42","NA","42","42","1","Wed Nov 17 13:14:40 2021","-6.5","The main experiment item","yes","experiment.osexp","C:/Users/elus/Demant/+Team OMEXP - Article/ISAAR 2021/Data/experiments","no","mono","no","18","no","white","no","Next","1000","no","768","6","1","6","C:/Users/elus/Documents/RecordingLSL_maybefinal/subject-1.csv","5","[<opensesame_plugins.lsl_start.liblsl.LSL_session object at 0x0000011CA6C73C88>]","Kafkaesque Koffka","3.2.7","1","0","2","1024","2","48000","-16","experiment","0","1","odd","NA","19930","172544","NA","6002","202955","199947","200952","201954","NA","NA","202955","NA","NA","172547","17930","198924","200451","201453","202455","198875","199925","198756","198875","173547","New experiment","yes","1024"
"<opensesame_plugins.lsl_start.liblsl.LSL_session object at 0x0000011CA6C73C88>","1","black","[0.0, 0.0]","legacy","0","uniform","43","0","1","0","0","43","43","43","43","1","NA","43","NA","0","1","0","43","43","43","43","43","NA","43","43","1","Wed Nov 17 13:14:40 2021","-7","The main experiment item","yes","experiment.osexp","C:/Users/elus/Demant/+Team OMEXP - Article/ISAAR 2021/Data/experiments","no","mono","no","18","no","white","no","Next","1000","no","768","7","1","7","C:/Users/elus/Documents/RecordingLSL_maybefinal/subject-1.csv","5","[<opensesame_plugins.lsl_start.liblsl.LSL_session object at 0x0000011CA6C73C88>]","Kafkaesque Koffka","3.2.7","2","0","2","1024","2","48000","-16","experiment","0","1","odd","NA","19930","172544","NA","6002","207165","204153","205155","206164","NA","NA","207165","NA","NA","172547","17930","203135","204654","205656","206665","203084","204136","202957","203084","173547","New experiment","yes","1024"
"<opensesame_plugins.lsl_start.liblsl.LSL_session object at 0x0000011CA6C73C88>","1","black","[0.0, 0.0]","legacy","0","uniform","44","0","1","0","0","44","44","44","44","1","NA","44","NA","0","1","0","44","44","44","44","44","NA","44","44","1","Wed Nov 17 13:14:40 2021","-7","The main experiment item","yes","experiment.osexp","C:/Users/elus/Demant/+Team OMEXP - Article/ISAAR 2021/Data/experiments","no","mono","no","18","no","white","no","Next","1000","no","768","8","1","8","C:/Users/elus/Documents/RecordingLSL_maybefinal/subject-1.csv","5","[<opensesame_plugins.lsl_start.liblsl.LSL_session object at 0x0000011CA6C73C88>]","Kafkaesque Koffka","3.2.7","3","0","2","1024","2","48000","-16","experiment","0","1","odd","NA","19930","172544","NA","6002","211377","208366","209370","210376","NA","NA","211377","NA","NA","172547","17930","207344","208869","209872","210877","207298","208345","207168","207298","173547","New experiment","yes","1024"
"<opensesame_plugins.lsl_start.liblsl.LSL_session object at 0x0000011CA6C73C88>","1","black","[0.0, 0.0]","legacy","0","uniform","45","0","1","0","0","45","45","45","45","1","NA","45","NA","0","1","0","45","45","45","45","45","NA","45","45","1","Wed Nov 17 13:14:40 2021","-7","The main experiment item","yes","experiment.osexp","C:/Users/elus/Demant/+Team OMEXP - Article/ISAAR 2021/Data/experiments","no","mono","no","18","no","white","no","Next","1000","no","768","9","1","9","C:/Users/elus/Documents/RecordingLSL_maybefinal/subject-1.csv","5","[<opensesame_plugins.lsl_start.liblsl.LSL_session object at 0x0000011CA6C73C88>]","Kafkaesque Koffka","3.2.7","1","0","2","1024","2","48000","-16","experiment","0","1","odd","NA","19930","172544","NA","6002","215591","212581","213583","214589","NA","NA","215591","NA","NA","172547","17930","211560","213082","214084","215091","211512","212562","211379","211512","173547","New experiment","yes","1024"
"<opensesame_plugins.lsl_start.liblsl.LSL_session object at 0x0000011CA6C73C88>","1","black","[0.0, 0.0]","legacy","0","uniform","46","0","1","0","0","46","46","46","46","1","NA","46","NA","0","1","0","46","46","46","46","46","NA","46","46","1","Wed Nov 17 13:14:40 2021","-7.5","The main experiment item","yes","experiment.osexp","C:/Users/elus/Demant/+Team OMEXP - Article/ISAAR 2021/Data/experiments","no","mono","no","18","no","white","no","Next","1000","no","768","10","1","10","C:/Users/elus/Documents/RecordingLSL_maybefinal/subject-1.csv","5","[<opensesame_plugins.lsl_start.liblsl.LSL_session object at 0x0000011CA6C73C88>]","Kafkaesque Koffka","3.2.7","2","0","2","1024","2","48000","-16","experiment","0","1","odd","NA","19930","172544","NA","6002","219807","216795","217803","218805","NA","NA","219807","NA","NA","172547","17930","215779","217296","218304","219307","215731","216779","215593","215731","173547","New experiment","yes","1024"
"<opensesame_plugins.lsl_start.liblsl.LSL_session object at 0x0000011CA6C73C88>","1","black","[0.0, 0.0]","legacy","0","uniform","47","0","1","0","0","47","47","47","47","1","NA","47","NA","0","1","0","47","47","47","47","47","NA","47","47","1","Wed Nov 17 13:14:40 2021","-7.5","The main experiment item","yes","experiment.osexp","C:/Users/elus/Demant/+Team OMEXP - Article/ISAAR 2021/Data/experiments","no","mono","no","18","no","white","no","Next","1000","no","768","11","1","11","C:/Users/elus/Documents/RecordingLSL_maybefinal/subject-1.csv","5","[<opensesame_plugins.lsl_start.liblsl.LSL_session object at 0x0000011CA6C73C88>]","Kafkaesque Koffka","3.2.7","3","0","2","1024","2","48000","-16","experiment","0","1","odd","NA","19930","172544","NA","6002","224006","220997","222002","223004","NA","NA","224006","NA","NA","172547","17930","219981","221501","222503","223506","219934","220983","219809","219934","173547","New experiment","yes","1024"
"<opensesame_plugins.lsl_start.liblsl.LSL_session object at 0x0000011CA6C73C88>","1","black","[0.0, 0.0]","legacy","0","uniform","48","0","1","0","0","48","48","48","48","1","NA","48","NA","0","1","0","48","48","48","48","48","NA","48","48","1","Wed Nov 17 13:14:40 2021","-7.5","The main experiment item","yes","experiment.osexp","C:/Users/elus/Demant/+Team OMEXP - Article/ISAAR 2021/Data/experiments","no","mono","no","18","no","white","no","Next","1000","no","768","12","1","12","C:/Users/elus/Documents/RecordingLSL_maybefinal/subject-1.csv","5","[<opensesame_plugins.lsl_start.liblsl.LSL_session object at 0x0000011CA6C73C88>]","Kafkaesque Koffka","3.2.7","1","0","2","1024","2","48000","-16","experiment","0","1","odd","NA","19930","172544","NA","6002","228203","225193","226199","227202","NA","NA","228203","NA","NA","172547","17930","224178","225694","226700","227703","224129","225181","224008","224129","173547","New experiment","yes","1024"
"<opensesame_plugins.lsl_start.liblsl.LSL_session object at 0x0000011CA6C73C88>","1","black","[0.0, 0.0]","legacy","0","uniform","49","0","1","0","0","49","49","49","49","1","NA","49","NA","0","1","0","49","49","49","49","49","NA","49","49","1","Wed Nov 17 13:14:40 2021","-8","The main experiment item","yes","experiment.osexp","C:/Users/elus/Demant/+Team OMEXP - Article/ISAAR 2021/Data/experiments","no","mono","no","18","no","white","no","Next","1000","no","768","13","1","13","C:/Users/elus/Documents/RecordingLSL_maybefinal/subject-1.csv","5","[<opensesame_plugins.lsl_start.liblsl.LSL_session object at 0x0000011CA6C73C88>]","Kafkaesque Koffka","3.2.7","2","0","2","1024","2","48000","-16","experiment","0","1","odd","NA","19930","172544","NA","6002","232518","229507","230512","231516","NA","NA","232518","NA","NA","172547","17930","228487","230008","231014","232018","228333","229488","228205","228333","173547","New experiment","yes","1024"
"<opensesame_plugins.lsl_start.liblsl.LSL_session object at 0x0000011CA6C73C88>","1","black","[0.0, 0.0]","legacy","0","uniform","50","0","1","0","0","50","50","50","50","1","NA","50","NA","0","1","0","50","50","50","50","50","NA","50","50","1","Wed Nov 17 13:14:40 2021","-8","The main experiment item","yes","experiment.osexp","C:/Users/elus/Demant/+Team OMEXP - Article/ISAAR 2021/Data/experiments","no","mono","no","18","no","white","no","Next","1000","no","768","14","1","14","C:/Users/elus/Documents/RecordingLSL_maybefinal/subject-1.csv","5","[<opensesame_plugins.lsl_start.liblsl.LSL_session object at 0x0000011CA6C73C88>]","Kafkaesque Koffka","3.2.7","3","0","2","1024","2","48000","-16","experiment","0","1","odd","NA","19930","172544","NA","6002","236681","233672","234674","235680","NA","NA","236681","NA","NA","172547","17930","232658","234173","235179","236181","232630","233658","232520","232629","173547","New experiment","yes","1024"
"<opensesame_plugins.lsl_start.liblsl.LSL_session object at 0x0000011CA6C73C88>","0","black","[0.0, 0.0]","legacy","0","uniform","51","0","1","0","0","51","51","51","51","1","NA","51","NA","0","1","0","51","51","51","51","51","NA","51","51","1","Wed Nov 17 13:14:40 2021","-8","The main experiment item","yes","experiment.osexp","C:/Users/elus/Demant/+Team OMEXP - Article/ISAAR 2021/Data/experiments","no","mono","no","18","no","white","no","Next","1000","no","768","15","1","15","C:/Users/elus/Documents/RecordingLSL_maybefinal/subject-1.csv","5","[<opensesame_plugins.lsl_start.liblsl.LSL_session object at 0x0000011CA6C73C88>]","Kafkaesque Koffka","3.2.7","1","0","2","1024","2","48000","-16","experiment","0","1","odd","NA","19930","172544","NA","6002","240830","237824","238826","239829","NA","NA","240830","NA","NA","172547","17930","236815","238325","239328","240330","236782","237815","236683","236782","173547","New experiment","yes","1024"
"<opensesame_plugins.lsl_start.liblsl.LSL_session object at 0x0000011CA6C73C88>","1","black","[0.0, 0.0]","legacy","0","uniform","52","0","1","0","0","52","52","52","52","1","NA","52","NA","0","1","0","52","52","52","52","52","NA","52","52","1","Wed Nov 17 13:14:40 2021","-7.5","The main experiment item","yes","experiment.osexp","C:/Users/elus/Demant/+Team OMEXP - Article/ISAAR 2021/Data/experiments","no","mono","no","18","no","white","no","Next","1000","no","768","16","1","16","C:/Users/elus/Documents/RecordingLSL_maybefinal/subject-1.csv","5","[<opensesame_plugins.lsl_start.liblsl.LSL_session object at 0x0000011CA6C73C88>]","Kafkaesque Koffka","3.2.7","2","0","2","1024","2","48000","-16","experiment","0","1","odd","NA","19930","172544","NA","6002","245000","241995","242997","243999","NA","NA","245000","NA","NA","172547","17930","240983","242496","243498","244500","240951","241983","240832","240951","173547","New experiment","yes","1024"
"<opensesame_plugins.lsl_start.liblsl.LSL_session object at 0x0000011CA6C73C88>","0","black","[0.0, 0.0]","legacy","0","uniform","53","0","1","0","0","53","53","53","53","1","NA","53","NA","0","1","0","53","53","53","53","53","NA","53","53","1","Wed Nov 17 13:14:40 2021","-7.5","The main experiment item","yes","experiment.osexp","C:/Users/elus/Demant/+Team OMEXP - Article/ISAAR 2021/Data/experiments","no","mono","no","18","no","white","no","Next","1000","no","768","17","1","17","C:/Users/elus/Documents/RecordingLSL_maybefinal/subject-1.csv","5","[<opensesame_plugins.lsl_start.liblsl.LSL_session object at 0x0000011CA6C73C88>]","Kafkaesque Koffka","3.2.7","3","0","2","1024","2","48000","-16","experiment","0","1","odd","NA","19930","172544","NA","6002","249178","246165","247168","248176","NA","NA","249178","NA","NA","172547","17930","245144","246666","247674","248678","245110","246144","245002","245110","173547","New experiment","yes","1024"
"<opensesame_plugins.lsl_start.liblsl.LSL_session object at 0x0000011CA6C73C88>","1","black","[0.0, 0.0]","legacy","0","uniform","54","0","1","0","0","54","54","54","54","1","NA","54","NA","0","1","0","54","54","54","54","54","NA","54","54","1","Wed Nov 17 13:14:40 2021","-7","The main experiment item","yes","experiment.osexp","C:/Users/elus/Demant/+Team OMEXP - Article/ISAAR 2021/Data/experiments","no","mono","no","18","no","white","no","Next","1000","no","768","18","1","18","C:/Users/elus/Documents/RecordingLSL_maybefinal/subject-1.csv","5","[<opensesame_plugins.lsl_start.liblsl.LSL_session object at 0x0000011CA6C73C88>]","Kafkaesque Koffka","3.2.7","1","0","2","1024","2","48000","-16","experiment","0","1","odd","NA","19930","172544","NA","6002","253340","250334","251337","252339","NA","NA","253340","NA","NA","172547","17930","249320","250836","251838","252840","249286","250320","249180","249286","173547","New experiment","yes","1024"
"<opensesame_plugins.lsl_start.liblsl.LSL_session object at 0x0000011CA6C73C88>","1","black","[0.0, 0.0]","legacy","0","uniform","55","0","1","0","0","55","55","55","55","1","NA","55","NA","0","1","0","55","55","55","55","55","NA","55","55","1","Wed Nov 17 13:14:40 2021","-7","The main experiment item","yes","experiment.osexp","C:/Users/elus/Demant/+Team OMEXP - Article/ISAAR 2021/Data/experiments","no","mono","no","18","no","white","no","Next","1000","no","768","19","1","19","C:/Users/elus/Documents/RecordingLSL_maybefinal/subject-1.csv","5","[<opensesame_plugins.lsl_start.liblsl.LSL_session object at 0x0000011CA6C73C88>]","Kafkaesque Koffka","3.2.7","2","0","2","1024","2","48000","-16","experiment","0","1","odd","NA","19930","172544","NA","6002","257501","254492","255494","256499","NA","NA","257501","NA","NA","172547","17930","253478","254993","255996","257001","253445","254478","253342","253445","173547","New experiment","yes","1024"
"<opensesame_plugins.lsl_start.liblsl.LSL_session object at 0x0000011CA6C73C88>","1","black","[0.0, 0.0]","legacy","0","uniform","56","0","1","0","0","56","56","56","56","1","NA","56","NA","0","1","0","56","56","56","56","56","NA","56","56","1","Wed Nov 17 13:14:40 2021","-7","The main experiment item","yes","experiment.osexp","C:/Users/elus/Demant/+Team OMEXP - Article/ISAAR 2021/Data/experiments","no","mono","no","18","no","white","no","Next","1000","no","768","20","1","20","C:/Users/elus/Documents/RecordingLSL_maybefinal/subject-1.csv","5","[<opensesame_plugins.lsl_start.liblsl.LSL_session object at 0x0000011CA6C73C88>]","Kafkaesque Koffka","3.2.7","3","0","2","1024","2","48000","-16","experiment","0","1","odd","NA","19930","172544","NA","6002","261668","258655","259657","260660","NA","NA","261668","NA","NA","172547","17930","257642","259156","260158","261168","257616","258642","257503","257616","173547","New experiment","yes","1024"
"<opensesame_plugins.lsl_start.liblsl.LSL_session object at 0x0000011CA6C73C88>","1","black","[0.0, 0.0]","legacy","0","uniform","57","0","1","0","0","57","57","57","57","1","NA","57","NA","0","1","0","57","57","57","57","57","NA","57","57","1","Wed Nov 17 13:14:40 2021","-7.5","The main experiment item","yes","experiment.osexp","C:/Users/elus/Demant/+Team OMEXP - Article/ISAAR 2021/Data/experiments","no","mono","no","18","no","white","no","Next","1000","no","768","21","1","21","C:/Users/elus/Documents/RecordingLSL_maybefinal/subject-1.csv","5","[<opensesame_plugins.lsl_start.liblsl.LSL_session object at 0x0000011CA6C73C88>]","Kafkaesque Koffka","3.2.7","1","0","2","1024","2","48000","-16","experiment","0","1","odd","NA","19930","172544","NA","6002","265833","262822","263825","264831","NA","NA","265833","NA","NA","172547","17930","261808","263323","264328","265333","261779","262808","261672","261779","173547","New experiment","yes","1024"
"<opensesame_plugins.lsl_start.liblsl.LSL_session object at 0x0000011CA6C73C88>","1","black","[0.0, 0.0]","legacy","0","uniform","58","0","1","0","0","58","58","58","58","1","NA","58","NA","0","1","0","58","58","58","58","58","NA","58","58","1","Wed Nov 17 13:14:40 2021","-7.5","The main experiment item","yes","experiment.osexp","C:/Users/elus/Demant/+Team OMEXP - Article/ISAAR 2021/Data/experiments","no","mono","no","18","no","white","no","Next","1000","no","768","22","1","22","C:/Users/elus/Documents/RecordingLSL_maybefinal/subject-1.csv","5","[<opensesame_plugins.lsl_start.liblsl.LSL_session object at 0x0000011CA6C73C88>]","Kafkaesque Koffka","3.2.7","2","0","2","1024","2","48000","-16","experiment","0","1","odd","NA","19930","172544","NA","6002","269996","266985","267988","268995","NA","NA","269996","NA","NA","172547","17930","265970","267486","268493","269496","265942","266970","265839","265942","173547","New experiment","yes","1024"
"<opensesame_plugins.lsl_start.liblsl.LSL_session object at 0x0000011CA6C73C88>","1","black","[0.0, 0.0]","legacy","0","uniform","59","0","1","0","0","59","59","59","59","1","NA","59","NA","0","1","0","59","59","59","59","59","NA","59","59","1","Wed Nov 17 13:14:40 2021","-7.5","The main experiment item","yes","experiment.osexp","C:/Users/elus/Demant/+Team OMEXP - Article/ISAAR 2021/Data/experiments","no","mono","no","18","no","white","no","Next","1000","no","768","23","1","23","C:/Users/elus/Documents/RecordingLSL_maybefinal/subject-1.csv","5","[<opensesame_plugins.lsl_start.liblsl.LSL_session object at 0x0000011CA6C73C88>]","Kafkaesque Koffka","3.2.7","3","0","2","1024","2","48000","-16","experiment","0","1","odd","NA","19930","172544","NA","6002","274176","271165","272168","273175","NA","NA","274176","NA","NA","172547","17930","270147","271667","272674","273676","270114","271147","270000","270114","173547","New experiment","yes","1024"
"<opensesame_plugins.lsl_start.liblsl.LSL_session object at 0x0000011CA6C73C88>","0","black","[0.0, 0.0]","legacy","0","uniform","60","0","1","0","0","60","60","60","60","1","NA","60","NA","0","1","0","60","60","60","60","60","NA","60","60","1","Wed Nov 17 13:14:40 2021","-8","The main experiment item","yes","experiment.osexp","C:/Users/elus/Demant/+Team OMEXP - Article/ISAAR 2021/Data/experiments","no","mono","no","18","no","white","no","Next","1000","no","768","24","1","24","C:/Users/elus/Documents/RecordingLSL_maybefinal/subject-1.csv","5","[<opensesame_plugins.lsl_start.liblsl.LSL_session object at 0x0000011CA6C73C88>]","Kafkaesque Koffka","3.2.7","1","0","2","1024","2","48000","-16","experiment","0","1","odd","NA","19930","172544","NA","6002","278354","275345","276347","277353","NA","NA","278354","NA","NA","172547","17930","274324","275846","276849","277854","274291","275325","274185","274291","173547","New experiment","yes","1024"
"<opensesame_plugins.lsl_start.liblsl.LSL_session object at 0x0000011CA6C73C88>","1","black","[0.0, 0.0]","legacy","0","uniform","61","0","1","0","0","61","61","61","61","1","NA","61","NA","0","1","0","61","61","61","61","61","NA","61","61","1","Wed Nov 17 13:14:40 2021","-7.5","The main experiment item","yes","experiment.osexp","C:/Users/elus/Demant/+Team OMEXP - Article/ISAAR 2021/Data/experiments","no","mono","no","18","no","white","no","Next","1000","no","768","25","1","25","C:/Users/elus/Documents/RecordingLSL_maybefinal/subject-1.csv","5","[<opensesame_plugins.lsl_start.liblsl.LSL_session object at 0x0000011CA6C73C88>]","Kafkaesque Koffka","3.2.7","2","0","2","1024","2","48000","-16","experiment","0","1","odd","NA","19930","172544","NA","6002","282525","279514","280521","281524","NA","NA","282525","NA","NA","172547","17930","278498","280016","281022","282025","278460","279498","278357","278460","173547","New experiment","yes","1024"
"<opensesame_plugins.lsl_start.liblsl.LSL_session object at 0x0000011CA6C73C88>","0","black","[0.0, 0.0]","legacy","0","uniform","62","0","1","0","0","62","62","62","62","1","NA","62","NA","0","1","0","62","62","62","62","62","NA","62","62","1","Wed Nov 17 13:14:40 2021","-7.5","The main experiment item","yes","experiment.osexp","C:/Users/elus/Demant/+Team OMEXP - Article/ISAAR 2021/Data/experiments","no","mono","no","18","no","white","no","Next","1000","no","768","26","1","26","C:/Users/elus/Documents/RecordingLSL_maybefinal/subject-1.csv","5","[<opensesame_plugins.lsl_start.liblsl.LSL_session object at 0x0000011CA6C73C88>]","Kafkaesque Koffka","3.2.7","3","0","2","1024","2","48000","-16","experiment","0","1","odd","NA","19930","172544","NA","6002","286693","283686","284689","285692","NA","NA","286693","NA","NA","172547","17930","282671","284188","285190","286193","282639","283671","282528","282639","173547","New experiment","yes","1024"
"<opensesame_plugins.lsl_start.liblsl.LSL_session object at 0x0000011CA6C73C88>","1","black","[0.0, 0.0]","legacy","0","uniform","63","0","1","0","0","63","63","63","63","1","NA","63","NA","0","1","0","63","63","63","63","63","NA","63","63","1","Wed Nov 17 13:14:40 2021","-7","The main experiment item","yes","experiment.osexp","C:/Users/elus/Demant/+Team OMEXP - Article/ISAAR 2021/Data/experiments","no","mono","no","18","no","white","no","Next","1000","no","768","27","1","27","C:/Users/elus/Documents/RecordingLSL_maybefinal/subject-1.csv","5","[<opensesame_plugins.lsl_start.liblsl.LSL_session object at 0x0000011CA6C73C88>]","Kafkaesque Koffka","3.2.7","1","0","2","1024","2","48000","-16","experiment","0","1","odd","NA","19930","172544","NA","6002","290862","287855","288857","289859","NA","NA","290862","NA","NA","172547","17930","286836","288356","289358","290362","286802","287836","286696","286802","173547","New experiment","yes","1024"
"<opensesame_plugins.lsl_start.liblsl.LSL_session object at 0x0000011CA6C73C88>","1","black","[0.0, 0.0]","legacy","0","uniform","64","0","1","0","0","64","64","64","64","1","NA","64","NA","0","1","0","64","64","64","64","64","NA","64","64","1","Wed Nov 17 13:14:40 2021","-7","The main experiment item","yes","experiment.osexp","C:/Users/elus/Demant/+Team OMEXP - Article/ISAAR 2021/Data/experiments","no","mono","no","18","no","white","no","Next","1000","no","768","28","1","28","C:/Users/elus/Documents/RecordingLSL_maybefinal/subject-1.csv","5","[<opensesame_plugins.lsl_start.liblsl.LSL_session object at 0x0000011CA6C73C88>]","Kafkaesque Koffka","3.2.7","2","0","2","1024","2","48000","-16","experiment","0","1","odd","NA","19930","172544","NA","6002","295040","292035","293036","294038","NA","NA","295040","NA","NA","172547","17930","291021","292535","293537","294540","290991","292021","290874","290991","173547","New experiment","yes","1024"
"<opensesame_plugins.lsl_start.liblsl.LSL_session object at 0x0000011CA6C73C88>","1","black","[0.0, 0.0]","legacy","0","uniform","65","0","1","0","0","65","65","65","65","1","NA","65","NA","0","1","0","65","65","65","65","65","NA","65","65","1","Wed Nov 17 13:14:40 2021","-7","The main experiment item","yes","experiment.osexp","C:/Users/elus/Demant/+Team OMEXP - Article/ISAAR 2021/Data/experiments","no","mono","no","18","no","white","no","Next","1000","no","768","29","1","29","C:/Users/elus/Documents/RecordingLSL_maybefinal/subject-1.csv","5","[<opensesame_plugins.lsl_start.liblsl.LSL_session object at 0x0000011CA6C73C88>]","Kafkaesque Koffka","3.2.7","3","0","2","1024","2","48000","-16","experiment","0","1","odd","NA","19930","172544","NA","6002","299205","296197","297201","298203","NA","NA","299206","NA","NA","172547","17930","295182","296699","297702","298705","295150","296182","295044","295150","173547","New experiment","yes","1024"
"<opensesame_plugins.lsl_start.liblsl.LSL_session object at 0x0000011CA6C73C88>","1","black","[0.0, 0.0]","legacy","0","uniform","66","0","1","0","0","66","66","66","66","1","NA","66","NA","0","1","0","66","66","66","66","66","NA","66","66","1","Wed Nov 17 13:14:40 2021","-7.5","The main experiment item","yes","experiment.osexp","C:/Users/elus/Demant/+Team OMEXP - Article/ISAAR 2021/Data/experiments","no","mono","no","18","no","white","no","Next","1000","no","768","30","1","30","C:/Users/elus/Documents/RecordingLSL_maybefinal/subject-1.csv","5","[<opensesame_plugins.lsl_start.liblsl.LSL_session object at 0x0000011CA6C73C88>]","Kafkaesque Koffka","3.2.7","1","0","2","1024","2","48000","-16","experiment","0","1","odd","NA","19930","172544","NA","6002","303375","300364","301366","302373","NA","NA","303375","NA","NA","172547","17930","299349","300865","301867","302875","299320","300349","299218","299320","173547","New experiment","yes","1024"
"<opensesame_plugins.lsl_start.liblsl.LSL_session object at 0x0000011CA6C73C88>","1","black","[0.0, 0.0]","legacy","0","uniform","67","0","1","0","0","67","67","67","67","1","NA","67","NA","0","1","0","67","67","67","67","67","NA","67","67","1","Wed Nov 17 13:14:40 2021","-7.5","The main experiment item","yes","experiment.osexp","C:/Users/elus/Demant/+Team OMEXP - Article/ISAAR 2021/Data/experiments","no","mono","no","18","no","white","no","Next","1000","no","768","31","1","31","C:/Users/elus/Documents/RecordingLSL_maybefinal/subject-1.csv","5","[<opensesame_plugins.lsl_start.liblsl.LSL_session object at 0x0000011CA6C73C88>]","Kafkaesque Koffka","3.2.7","2","0","2","1024","2","48000","-16","experiment","0","1","odd","NA","19930","172544","NA","6002","307540","304530","305533","306538","NA","NA","307540","NA","NA","172547","17930","303514","305031","306035","307040","303482","304515","303377","303482","173547","New experiment","yes","1024"
"<opensesame_plugins.lsl_start.liblsl.LSL_session object at 0x0000011CA6C73C88>","1","black","[0.0, 0.0]","legacy","0","uniform","68","0","1","0","0","68","68","68","68","1","NA","68","NA","0","1","0","68","68","68","68","68","NA","68","68","1","Wed Nov 17 13:14:40 2021","-7.5","The main experiment item","yes","experiment.osexp","C:/Users/elus/Demant/+Team OMEXP - Article/ISAAR 2021/Data/experiments","no","mono","no","18","no","white","no","Next","1000","no","768","32","1","32","C:/Users/elus/Documents/RecordingLSL_maybefinal/subject-1.csv","5","[<opensesame_plugins.lsl_start.liblsl.LSL_session object at 0x0000011CA6C73C88>]","Kafkaesque Koffka","3.2.7","3","0","2","1024","2","48000","-16","experiment","0","1","odd","NA","19930","172544","NA","6002","311724","308705","309720","310723","NA","NA","311724","NA","NA","172547","17930","307693","309217","310222","311224","307644","308693","307542","307644","173547","New experiment","yes","1024"
"<opensesame_plugins.lsl_start.liblsl.LSL_session object at 0x0000011CA6C73C88>","1","black","[0.0, 0.0]","legacy","0","uniform","69","0","1","0","0","69","69","69","69","1","NA","69","NA","0","1","0","69","69","69","69","69","NA","69","69","1","Wed Nov 17 13:14:40 2021","-8","The main experiment item","yes","experiment.osexp","C:/Users/elus/Demant/+Team OMEXP - Article/ISAAR 2021/Data/experiments","no","mono","no","18","no","white","no","Next","1000","no","768","33","1","33","C:/Users/elus/Documents/RecordingLSL_maybefinal/subject-1.csv","5","[<opensesame_plugins.lsl_start.liblsl.LSL_session object at 0x0000011CA6C73C88>]","Kafkaesque Koffka","3.2.7","1","0","2","1024","2","48000","-16","experiment","0","1","odd","NA","19930","172544","NA","6002","315893","312873","313888","314892","NA","NA","315893","NA","NA","172547","17930","311858","313387","314390","315393","311831","312858","311726","311831","173547","New experiment","yes","1024"
"<opensesame_plugins.lsl_start.liblsl.LSL_session object at 0x0000011CA6C73C88>","1","black","[0.0, 0.0]","legacy","0","uniform","70","0","1","0","0","70","70","70","70","1","NA","70","NA","0","1","0","70","70","70","70","70","NA","70","70","1","Wed Nov 17 13:14:40 2021","-8","The main experiment item","yes","experiment.osexp","C:/Users/elus/Demant/+Team OMEXP - Article/ISAAR 2021/Data/experiments","no","mono","no","18","no","white","no","Next","1000","no","768","34","1","34","C:/Users/elus/Documents/RecordingLSL_maybefinal/subject-1.csv","5","[<opensesame_plugins.lsl_start.liblsl.LSL_session object at 0x0000011CA6C73C88>]","Kafkaesque Koffka","3.2.7","2","0","2","1024","2","48000","-16","experiment","0","1","odd","NA","19930","172544","NA","6002","320065","317056","318060","319064","NA","NA","320065","NA","NA","172547","17930","316037","317557","318563","319565","316008","317037","315895","316008","173547","New experiment","yes","1024"
"<opensesame_plugins.lsl_start.liblsl.LSL_session object at 0x0000011CA6C73C88>","1","black","[0.0, 0.0]","legacy","0","uniform","71","0","1","0","0","71","71","71","71","1","NA","71","NA","0","1","0","71","71","71","71","71","NA","71","71","1","Wed Nov 17 13:14:40 2021","-8","The main experiment item","yes","experiment.osexp","C:/Users/elus/Demant/+Team OMEXP - Article/ISAAR 2021/Data/experiments","no","mono","no","18","no","white","no","Next","1000","no","768","35","1","35","C:/Users/elus/Documents/RecordingLSL_maybefinal/subject-1.csv","5","[<opensesame_plugins.lsl_start.liblsl.LSL_session object at 0x0000011CA6C73C88>]","Kafkaesque Koffka","3.2.7","3","0","2","1024","2","48000","-16","experiment","0","1","odd","NA","19930","172544","NA","6002","324253","321238","322241","323252","NA","NA","324253","NA","NA","172547","17930","320216","321740","322750","323753","320179","321216","320067","320179","173547","New experiment","yes","1024"
"<opensesame_plugins.lsl_start.liblsl.LSL_session object at 0x0000011CA6C73C88>","1","black","[0.0, 0.0]","legacy","0","uniform","72","0","2","0","0","72","72","72","72","2","NA","72","NA","0","2","0","72","72","72","72","72","NA","72","72","2","Wed Nov 17 13:14:40 2021","-6","The main experiment item","yes","experiment.osexp","C:/Users/elus/Demant/+Team OMEXP - Article/ISAAR 2021/Data/experiments","no","mono","no","18","no","white","no","Next","400","no","768","0","2","0","C:/Users/elus/Documents/RecordingLSL_maybefinal/subject-1.csv","10","[<opensesame_plugins.lsl_start.liblsl.LSL_session object at 0x0000011CA6C73C88>]","Kafkaesque Koffka","3.2.7","1","0","2","1024","2","48000","-16","experiment","0","1","odd","NA","19930","324379","NA","6002","329499","326474","327480","328487","NA","NA","329499","NA","NA","324381","17930","325464","326979","327985","328999","325437","326464","324257","325437","325381","New experiment","yes","1024"
"<opensesame_plugins.lsl_start.liblsl.LSL_session object at 0x0000011CA6C73C88>","1","black","[0.0, 0.0]","legacy","0","uniform","73","0","2","0","0","73","73","73","73","2","NA","73","NA","0","2","0","73","73","73","73","73","NA","73","73","2","Wed Nov 17 13:14:40 2021","-6","The main experiment item","yes","experiment.osexp","C:/Users/elus/Demant/+Team OMEXP - Article/ISAAR 2021/Data/experiments","no","mono","no","18","no","white","no","Next","400","no","768","1","2","1","C:/Users/elus/Documents/RecordingLSL_maybefinal/subject-1.csv","10","[<opensesame_plugins.lsl_start.liblsl.LSL_session object at 0x0000011CA6C73C88>]","Kafkaesque Koffka","3.2.7","2","0","2","1024","2","48000","-16","experiment","0","1","odd","NA","19930","324379","NA","6002","333674","330664","331666","332668","NA","NA","333674","NA","NA","324381","17930","329646","331165","332167","333174","329614","330646","329501","329614","325381","New experiment","yes","1024"
"<opensesame_plugins.lsl_start.liblsl.LSL_session object at 0x0000011CA6C73C88>","1","black","[0.0, 0.0]","legacy","0","uniform","74","0","2","0","0","74","74","74","74","2","NA","74","NA","0","2","0","74","74","74","74","74","NA","74","74","2","Wed Nov 17 13:14:40 2021","-6","The main experiment item","yes","experiment.osexp","C:/Users/elus/Demant/+Team OMEXP - Article/ISAAR 2021/Data/experiments","no","mono","no","18","no","white","no","Next","400","no","768","2","2","2","C:/Users/elus/Documents/RecordingLSL_maybefinal/subject-1.csv","10","[<opensesame_plugins.lsl_start.liblsl.LSL_session object at 0x0000011CA6C73C88>]","Kafkaesque Koffka","3.2.7","3","0","2","1024","2","48000","-16","experiment","0","1","odd","NA","19930","324379","NA","6002","337836","334825","335828","336834","NA","NA","337836","NA","NA","324381","17930","333810","335326","336332","337336","333775","334810","333676","333775","325381","New experiment","yes","1024"
"<opensesame_plugins.lsl_start.liblsl.LSL_session object at 0x0000011CA6C73C88>","1","black","[0.0, 0.0]","legacy","0","uniform","75","0","2","0","0","75","75","75","75","2","NA","75","NA","0","2","0","75","75","75","75","75","NA","75","75","2","Wed Nov 17 13:14:40 2021","-7","The main experiment item","yes","experiment.osexp","C:/Users/elus/Demant/+Team OMEXP - Article/ISAAR 2021/Data/experiments","no","mono","no","18","no","white","no","Next","400","no","768","3","2","3","C:/Users/elus/Documents/RecordingLSL_maybefinal/subject-1.csv","10","[<opensesame_plugins.lsl_start.liblsl.LSL_session object at 0x0000011CA6C73C88>]","Kafkaesque Koffka","3.2.7","1","0","2","1024","2","48000","-16","experiment","0","1","odd","NA","19930","324379","NA","6002","342011","339005","340008","341010","NA","NA","342011","NA","NA","324381","17930","337993","339507","340509","341511","337961","338993","337845","337961","325381","New experiment","yes","1024"
"<opensesame_plugins.lsl_start.liblsl.LSL_session object at 0x0000011CA6C73C88>","1","black","[0.0, 0.0]","legacy","0","uniform","76","0","2","0","0","76","76","76","76","2","NA","76","NA","0","2","0","76","76","76","76","76","NA","76","76","2","Wed Nov 17 13:14:40 2021","-7","The main experiment item","yes","experiment.osexp","C:/Users/elus/Demant/+Team OMEXP - Article/ISAAR 2021/Data/experiments","no","mono","no","18","no","white","no","Next","400","no","768","4","2","4","C:/Users/elus/Documents/RecordingLSL_maybefinal/subject-1.csv","10","[<opensesame_plugins.lsl_start.liblsl.LSL_session object at 0x0000011CA6C73C88>]","Kafkaesque Koffka","3.2.7","2","0","2","1024","2","48000","-16","experiment","0","1","odd","NA","19930","324379","NA","6002","346171","343161","344167","345170","NA","NA","346171","NA","NA","324381","17930","342152","343666","344668","345671","342122","343152","342016","342122","325381","New experiment","yes","1024"
"<opensesame_plugins.lsl_start.liblsl.LSL_session object at 0x0000011CA6C73C88>","1","black","[0.0, 0.0]","legacy","0","uniform","77","0","2","0","0","77","77","77","77","2","NA","77","NA","0","2","0","77","77","77","77","77","NA","77","77","2","Wed Nov 17 13:14:40 2021","-7","The main experiment item","yes","experiment.osexp","C:/Users/elus/Demant/+Team OMEXP - Article/ISAAR 2021/Data/experiments","no","mono","no","18","no","white","no","Next","400","no","768","5","2","5","C:/Users/elus/Documents/RecordingLSL_maybefinal/subject-1.csv","10","[<opensesame_plugins.lsl_start.liblsl.LSL_session object at 0x0000011CA6C73C88>]","Kafkaesque Koffka","3.2.7","3","0","2","1024","2","48000","-16","experiment","0","1","odd","NA","19930","324379","NA","6002","350352","347337","348339","349342","NA","NA","350352","NA","NA","324381","17930","346323","347838","348840","349852","346297","347323","346176","346296","325381","New experiment","yes","1024"
"<opensesame_plugins.lsl_start.liblsl.LSL_session object at 0x0000011CA6C73C88>","1","black","[0.0, 0.0]","legacy","0","uniform","78","0","2","0","0","78","78","78","78","2","NA","78","NA","0","2","0","78","78","78","78","78","NA","78","78","2","Wed Nov 17 13:14:40 2021","-8","The main experiment item","yes","experiment.osexp","C:/Users/elus/Demant/+Team OMEXP - Article/ISAAR 2021/Data/experiments","no","mono","no","18","no","white","no","Next","400","no","768","6","2","6","C:/Users/elus/Documents/RecordingLSL_maybefinal/subject-1.csv","10","[<opensesame_plugins.lsl_start.liblsl.LSL_session object at 0x0000011CA6C73C88>]","Kafkaesque Koffka","3.2.7","1","0","2","1024","2","48000","-16","experiment","0","1","odd","NA","19930","324379","NA","6002","354528","351515","352520","353524","NA","NA","354528","NA","NA","324381","17930","350503","352016","353021","354028","350473","351503","350354","350473","325381","New experiment","yes","1024"
"<opensesame_plugins.lsl_start.liblsl.LSL_session object at 0x0000011CA6C73C88>","1","black","[0.0, 0.0]","legacy","0","uniform","79","0","2","0","0","79","79","79","79","2","NA","79","NA","0","2","0","79","79","79","79","79","NA","79","79","2","Wed Nov 17 13:14:40 2021","-8","The main experiment item","yes","experiment.osexp","C:/Users/elus/Demant/+Team OMEXP - Article/ISAAR 2021/Data/experiments","no","mono","no","18","no","white","no","Next","400","no","768","7","2","7","C:/Users/elus/Documents/RecordingLSL_maybefinal/subject-1.csv","10","[<opensesame_plugins.lsl_start.liblsl.LSL_session object at 0x0000011CA6C73C88>]","Kafkaesque Koffka","3.2.7","2","0","2","1024","2","48000","-16","experiment","0","1","odd","NA","19930","324379","NA","6002","358696","355685","356689","357694","NA","NA","358696","NA","NA","324381","17930","354669","356187","357193","358196","354644","355669","354531","354644","325381","New experiment","yes","1024"
"<opensesame_plugins.lsl_start.liblsl.LSL_session object at 0x0000011CA6C73C88>","1","black","[0.0, 0.0]","legacy","0","uniform","80","0","2","0","0","80","80","80","80","2","NA","80","NA","0","2","0","80","80","80","80","80","NA","80","80","2","Wed Nov 17 13:14:40 2021","-8","The main experiment item","yes","experiment.osexp","C:/Users/elus/Demant/+Team OMEXP - Article/ISAAR 2021/Data/experiments","no","mono","no","18","no","white","no","Next","400","no","768","8","2","8","C:/Users/elus/Documents/RecordingLSL_maybefinal/subject-1.csv","10","[<opensesame_plugins.lsl_start.liblsl.LSL_session object at 0x0000011CA6C73C88>]","Kafkaesque Koffka","3.2.7","3","0","2","1024","2","48000","-16","experiment","0","1","odd","NA","19930","324379","NA","6002","362871","359863","360865","361868","NA","NA","362871","NA","NA","324381","17930","358845","360364","361367","362371","358814","359845","358698","358814","325381","New experiment","yes","1024"
"<opensesame_plugins.lsl_start.liblsl.LSL_session object at 0x0000011CA6C73C88>","0","black","[0.0, 0.0]","legacy","0","uniform","81","0","2","0","0","81","81","81","81","2","NA","81","NA","0","2","0","81","81","81","81","81","NA","81","81","2","Wed Nov 17 13:14:40 2021","-9","The main experiment item","yes","experiment.osexp","C:/Users/elus/Demant/+Team OMEXP - Article/ISAAR 2021/Data/experiments","no","mono","no","18","no","white","no","Next","400","no","768","9","2","9","C:/Users/elus/Documents/RecordingLSL_maybefinal/subject-1.csv","10","[<opensesame_plugins.lsl_start.liblsl.LSL_session object at 0x0000011CA6C73C88>]","Kafkaesque Koffka","3.2.7","1","0","2","1024","2","48000","-16","experiment","0","1","odd","NA","19930","324379","NA","6002","367057","364048","365050","366055","NA","NA","367057","NA","NA","324381","17930","363024","364549","365553","366557","362993","364024","362873","362993","325381","New experiment","yes","1024"
"<opensesame_plugins.lsl_start.liblsl.LSL_session object at 0x0000011CA6C73C88>","1","black","[0.0, 0.0]","legacy","0","uniform","82","0","2","0","0","82","82","82","82","2","NA","82","NA","0","2","0","82","82","82","82","82","NA","82","82","2","Wed Nov 17 13:14:40 2021","-8.5","The main experiment item","yes","experiment.osexp","C:/Users/elus/Demant/+Team OMEXP - Article/ISAAR 2021/Data/experiments","no","mono","no","18","no","white","no","Next","400","no","768","10","2","10","C:/Users/elus/Documents/RecordingLSL_maybefinal/subject-1.csv","10","[<opensesame_plugins.lsl_start.liblsl.LSL_session object at 0x0000011CA6C73C88>]","Kafkaesque Koffka","3.2.7","2","0","2","1024","2","48000","-16","experiment","0","1","odd","NA","19930","324379","NA","6002","371240","368228","369230","370239","NA","NA","371240","NA","NA","324381","17930","367213","368729","369732","370740","367183","368213","367059","367183","325381","New experiment","yes","1024"
"<opensesame_plugins.lsl_start.liblsl.LSL_session object at 0x0000011CA6C73C88>","1","black","[0.0, 0.0]","legacy","0","uniform","83","0","2","0","0","83","83","83","83","2","NA","83","NA","0","2","0","83","83","83","83","83","NA","83","83","2","Wed Nov 17 13:14:40 2021","-8.5","The main experiment item","yes","experiment.osexp","C:/Users/elus/Demant/+Team OMEXP - Article/ISAAR 2021/Data/experiments","no","mono","no","18","no","white","no","Next","400","no","768","11","2","11","C:/Users/elus/Documents/RecordingLSL_maybefinal/subject-1.csv","10","[<opensesame_plugins.lsl_start.liblsl.LSL_session object at 0x0000011CA6C73C88>]","Kafkaesque Koffka","3.2.7","3","0","2","1024","2","48000","-16","experiment","0","1","odd","NA","19930","324379","NA","6002","375412","372404","373406","374410","NA","NA","375412","NA","NA","324381","17930","371393","372905","373908","374912","371359","372393","371244","371359","325381","New experiment","yes","1024"
"<opensesame_plugins.lsl_start.liblsl.LSL_session object at 0x0000011CA6C73C88>","0","black","[0.0, 0.0]","legacy","0","uniform","84","0","2","0","0","84","84","84","84","2","NA","84","NA","0","2","0","84","84","84","84","84","NA","84","84","2","Wed Nov 17 13:14:40 2021","-8.5","The main experiment item","yes","experiment.osexp","C:/Users/elus/Demant/+Team OMEXP - Article/ISAAR 2021/Data/experiments","no","mono","no","18","no","white","no","Next","400","no","768","12","2","12","C:/Users/elus/Documents/RecordingLSL_maybefinal/subject-1.csv","10","[<opensesame_plugins.lsl_start.liblsl.LSL_session object at 0x0000011CA6C73C88>]","Kafkaesque Koffka","3.2.7","1","0","2","1024","2","48000","-16","experiment","0","1","odd","NA","19930","324379","NA","6002","379583","376574","377576","378582","NA","NA","379583","NA","NA","324381","17930","375562","377075","378080","379083","375535","376562","375421","375535","325381","New experiment","yes","1024"
"<opensesame_plugins.lsl_start.liblsl.LSL_session object at 0x0000011CA6C73C88>","1","black","[0.0, 0.0]","legacy","0","uniform","85","0","2","0","0","85","85","85","85","2","NA","85","NA","0","2","0","85","85","85","85","85","NA","85","85","2","Wed Nov 17 13:14:40 2021","-8","The main experiment item","yes","experiment.osexp","C:/Users/elus/Demant/+Team OMEXP - Article/ISAAR 2021/Data/experiments","no","mono","no","18","no","white","no","Next","400","no","768","13","2","13","C:/Users/elus/Documents/RecordingLSL_maybefinal/subject-1.csv","10","[<opensesame_plugins.lsl_start.liblsl.LSL_session object at 0x0000011CA6C73C88>]","Kafkaesque Koffka","3.2.7","2","0","2","1024","2","48000","-16","experiment","0","1","odd","NA","19930","324379","NA","6002","383747","380738","381740","382746","NA","NA","383747","NA","NA","324381","17930","379721","381239","382242","383247","379686","380721","379585","379686","325381","New experiment","yes","1024"
"<opensesame_plugins.lsl_start.liblsl.LSL_session object at 0x0000011CA6C73C88>","1","black","[0.0, 0.0]","legacy","0","uniform","86","0","2","0","0","86","86","86","86","2","NA","86","NA","0","2","0","86","86","86","86","86","NA","86","86","2","Wed Nov 17 13:14:40 2021","-8","The main experiment item","yes","experiment.osexp","C:/Users/elus/Demant/+Team OMEXP - Article/ISAAR 2021/Data/experiments","no","mono","no","18","no","white","no","Next","400","no","768","14","2","14","C:/Users/elus/Documents/RecordingLSL_maybefinal/subject-1.csv","10","[<opensesame_plugins.lsl_start.liblsl.LSL_session object at 0x0000011CA6C73C88>]","Kafkaesque Koffka","3.2.7","3","0","2","1024","2","48000","-16","experiment","0","1","odd","NA","19930","324379","NA","6002","387912","384903","385905","386910","NA","NA","387912","NA","NA","324381","17930","383888","385404","386408","387411","383852","384889","383749","383852","325381","New experiment","yes","1024"
"<opensesame_plugins.lsl_start.liblsl.LSL_session object at 0x0000011CA6C73C88>","1","black","[0.0, 0.0]","legacy","0","uniform","87","0","2","0","0","87","87","87","87","2","NA","87","NA","0","2","0","87","87","87","87","87","NA","87","87","2","Wed Nov 17 13:14:40 2021","-8","The main experiment item","yes","experiment.osexp","C:/Users/elus/Demant/+Team OMEXP - Article/ISAAR 2021/Data/experiments","no","mono","no","18","no","white","no","Next","400","no","768","15","2","15","C:/Users/elus/Documents/RecordingLSL_maybefinal/subject-1.csv","10","[<opensesame_plugins.lsl_start.liblsl.LSL_session object at 0x0000011CA6C73C88>]","Kafkaesque Koffka","3.2.7","1","0","2","1024","2","48000","-16","experiment","0","1","odd","NA","19930","324379","NA","6002","392075","389067","390069","391074","NA","NA","392075","NA","NA","324381","17930","388050","389568","390571","391575","388015","389050","387914","388015","325381","New experiment","yes","1024"
"<opensesame_plugins.lsl_start.liblsl.LSL_session object at 0x0000011CA6C73C88>","1","black","[0.0, 0.0]","legacy","0","uniform","88","0","2","0","0","88","88","88","88","2","NA","88","NA","0","2","0","88","88","88","88","88","NA","88","88","2","Wed Nov 17 13:14:40 2021","-8.5","The main experiment item","yes","experiment.osexp","C:/Users/elus/Demant/+Team OMEXP - Article/ISAAR 2021/Data/experiments","no","mono","no","18","no","white","no","Next","400","no","768","16","2","16","C:/Users/elus/Documents/RecordingLSL_maybefinal/subject-1.csv","10","[<opensesame_plugins.lsl_start.liblsl.LSL_session object at 0x0000011CA6C73C88>]","Kafkaesque Koffka","3.2.7","2","0","2","1024","2","48000","-16","experiment","0","1","odd","NA","19930","324379","NA","6002","396240","393232","394237","395239","NA","NA","396240","NA","NA","324381","17930","392216","393735","394738","395740","392178","393217","392077","392178","325381","New experiment","yes","1024"
"<opensesame_plugins.lsl_start.liblsl.LSL_session object at 0x0000011CA6C73C88>","1","black","[0.0, 0.0]","legacy","0","uniform","89","0","2","0","0","89","89","89","89","2","NA","89","NA","0","2","0","89","89","89","89","89","NA","89","89","2","Wed Nov 17 13:14:40 2021","-8.5","The main experiment item","yes","experiment.osexp","C:/Users/elus/Demant/+Team OMEXP - Article/ISAAR 2021/Data/experiments","no","mono","no","18","no","white","no","Next","400","no","768","17","2","17","C:/Users/elus/Documents/RecordingLSL_maybefinal/subject-1.csv","10","[<opensesame_plugins.lsl_start.liblsl.LSL_session object at 0x0000011CA6C73C88>]","Kafkaesque Koffka","3.2.7","3","0","2","1024","2","48000","-16","experiment","0","1","odd","NA","19930","324379","NA","6002","400401","397393","398395","399400","NA","NA","400401","NA","NA","324381","17930","396380","397894","398896","399901","396347","397380","396242","396347","325381","New experiment","yes","1024"
"<opensesame_plugins.lsl_start.liblsl.LSL_session object at 0x0000011CA6C73C88>","1","black","[0.0, 0.0]","legacy","0","uniform","90","0","2","0","0","90","90","90","90","2","NA","90","NA","0","2","0","90","90","90","90","90","NA","90","90","2","Wed Nov 17 13:14:40 2021","-8.5","The main experiment item","yes","experiment.osexp","C:/Users/elus/Demant/+Team OMEXP - Article/ISAAR 2021/Data/experiments","no","mono","no","18","no","white","no","Next","400","no","768","18","2","18","C:/Users/elus/Documents/RecordingLSL_maybefinal/subject-1.csv","10","[<opensesame_plugins.lsl_start.liblsl.LSL_session object at 0x0000011CA6C73C88>]","Kafkaesque Koffka","3.2.7","1","0","2","1024","2","48000","-16","experiment","0","1","odd","NA","19930","324379","NA","6002","404562","401555","402558","403560","NA","NA","404562","NA","NA","324381","17930","400543","402057","403059","404062","400504","401543","400403","400504","325381","New experiment","yes","1024"
"<opensesame_plugins.lsl_start.liblsl.LSL_session object at 0x0000011CA6C73C88>","1","black","[0.0, 0.0]","legacy","0","uniform","91","0","2","0","0","91","91","91","91","2","NA","91","NA","0","2","0","91","91","91","91","91","NA","91","91","2","Wed Nov 17 13:14:40 2021","-9","The main experiment item","yes","experiment.osexp","C:/Users/elus/Demant/+Team OMEXP - Article/ISAAR 2021/Data/experiments","no","mono","no","18","no","white","no","Next","400","no","768","19","2","19","C:/Users/elus/Documents/RecordingLSL_maybefinal/subject-1.csv","10","[<opensesame_plugins.lsl_start.liblsl.LSL_session object at 0x0000011CA6C73C88>]","Kafkaesque Koffka","3.2.7","2","0","2","1024","2","48000","-16","experiment","0","1","odd","NA","19930","324379","NA","6002","408733","405722","406724","407729","NA","NA","408733","NA","NA","324381","17930","404706","406223","407225","408233","404674","405706","404568","404674","325381","New experiment","yes","1024"
"<opensesame_plugins.lsl_start.liblsl.LSL_session object at 0x0000011CA6C73C88>","0","black","[0.0, 0.0]","legacy","0","uniform","92","0","2","0","0","92","92","92","92","2","NA","92","NA","0","2","0","92","92","92","92","92","NA","92","92","2","Wed Nov 17 13:14:40 2021","-9","The main experiment item","yes","experiment.osexp","C:/Users/elus/Demant/+Team OMEXP - Article/ISAAR 2021/Data/experiments","no","mono","no","18","no","white","no","Next","400","no","768","20","2","20","C:/Users/elus/Documents/RecordingLSL_maybefinal/subject-1.csv","10","[<opensesame_plugins.lsl_start.liblsl.LSL_session object at 0x0000011CA6C73C88>]","Kafkaesque Koffka","3.2.7","3","0","2","1024","2","48000","-16","experiment","0","1","odd","NA","19930","324379","NA","6002","412914","409903","410905","411909","NA","NA","412914","NA","NA","324381","17930","408887","410404","411407","412414","408856","409887","408735","408856","325381","New experiment","yes","1024"
"<opensesame_plugins.lsl_start.liblsl.LSL_session object at 0x0000011CA6C73C88>","0","black","[0.0, 0.0]","legacy","0","uniform","93","0","2","0","0","93","93","93","93","2","NA","93","NA","0","2","0","93","93","93","93","93","NA","93","93","2","Wed Nov 17 13:14:40 2021","-8.5","The main experiment item","yes","experiment.osexp","C:/Users/elus/Demant/+Team OMEXP - Article/ISAAR 2021/Data/experiments","no","mono","no","18","no","white","no","Next","400","no","768","21","2","21","C:/Users/elus/Documents/RecordingLSL_maybefinal/subject-1.csv","10","[<opensesame_plugins.lsl_start.liblsl.LSL_session object at 0x0000011CA6C73C88>]","Kafkaesque Koffka","3.2.7","1","0","2","1024","2","48000","-16","experiment","0","1","odd","NA","19930","324379","NA","6002","417095","414084","415087","416091","NA","NA","417095","NA","NA","324381","17930","413065","414585","415588","416595","413036","414065","412916","413036","325381","New experiment","yes","1024"
"<opensesame_plugins.lsl_start.liblsl.LSL_session object at 0x0000011CA6C73C88>","0","black","[0.0, 0.0]","legacy","0","uniform","94","0","2","0","0","94","94","94","94","2","NA","94","NA","0","2","0","94","94","94","94","94","NA","94","94","2","Wed Nov 17 13:14:40 2021","-8","The main experiment item","yes","experiment.osexp","C:/Users/elus/Demant/+Team OMEXP - Article/ISAAR 2021/Data/experiments","no","mono","no","18","no","white","no","Next","400","no","768","22","2","22","C:/Users/elus/Documents/RecordingLSL_maybefinal/subject-1.csv","10","[<opensesame_plugins.lsl_start.liblsl.LSL_session object at 0x0000011CA6C73C88>]","Kafkaesque Koffka","3.2.7","2","0","2","1024","2","48000","-16","experiment","0","1","odd","NA","19930","324379","NA","6002","421262","418253","419259","420261","NA","NA","421262","NA","NA","324381","17930","417237","418754","419760","420762","417210","418237","417097","417210","325381","New experiment","yes","1024"
"<opensesame_plugins.lsl_start.liblsl.LSL_session object at 0x0000011CA6C73C88>","1","black","[0.0, 0.0]","legacy","0","uniform","95","0","2","0","0","95","95","95","95","2","NA","95","NA","0","2","0","95","95","95","95","95","NA","95","95","2","Wed Nov 17 13:14:40 2021","-7.5","The main experiment item","yes","experiment.osexp","C:/Users/elus/Demant/+Team OMEXP - Article/ISAAR 2021/Data/experiments","no","mono","no","18","no","white","no","Next","400","no","768","23","2","23","C:/Users/elus/Documents/RecordingLSL_maybefinal/subject-1.csv","10","[<opensesame_plugins.lsl_start.liblsl.LSL_session object at 0x0000011CA6C73C88>]","Kafkaesque Koffka","3.2.7","3","0","2","1024","2","48000","-16","experiment","0","1","odd","NA","19930","324379","NA","6002","425460","422445","423455","424458","NA","NA","425460","NA","NA","324381","17930","421429","422947","423956","424960","421366","422430","421264","421366","325381","New experiment","yes","1024"
"<opensesame_plugins.lsl_start.liblsl.LSL_session object at 0x0000011CA6C73C88>","1","black","[0.0, 0.0]","legacy","0","uniform","96","0","2","0","0","96","96","96","96","2","NA","96","NA","0","2","0","96","96","96","96","96","NA","96","96","2","Wed Nov 17 13:14:40 2021","-7.5","The main experiment item","yes","experiment.osexp","C:/Users/elus/Demant/+Team OMEXP - Article/ISAAR 2021/Data/experiments","no","mono","no","18","no","white","no","Next","400","no","768","24","2","24","C:/Users/elus/Documents/RecordingLSL_maybefinal/subject-1.csv","10","[<opensesame_plugins.lsl_start.liblsl.LSL_session object at 0x0000011CA6C73C88>]","Kafkaesque Koffka","3.2.7","1","0","2","1024","2","48000","-16","experiment","0","1","odd","NA","19930","324379","NA","6002","429682","426674","427678","428680","NA","NA","429683","NA","NA","324381","17930","425649","427175","428179","429182","425597","426649","425462","425597","325381","New experiment","yes","1024"
"<opensesame_plugins.lsl_start.liblsl.LSL_session object at 0x0000011CA6C73C88>","1","black","[0.0, 0.0]","legacy","0","uniform","97","0","2","0","0","97","97","97","97","2","NA","97","NA","0","2","0","97","97","97","97","97","NA","97","97","2","Wed Nov 17 13:14:40 2021","-7.5","The main experiment item","yes","experiment.osexp","C:/Users/elus/Demant/+Team OMEXP - Article/ISAAR 2021/Data/experiments","no","mono","no","18","no","white","no","Next","400","no","768","25","2","25","C:/Users/elus/Documents/RecordingLSL_maybefinal/subject-1.csv","10","[<opensesame_plugins.lsl_start.liblsl.LSL_session object at 0x0000011CA6C73C88>]","Kafkaesque Koffka","3.2.7","2","0","2","1024","2","48000","-16","experiment","0","1","odd","NA","19930","324379","NA","6002","433890","430880","431885","432888","NA","NA","433890","NA","NA","324381","17930","429857","431384","432386","433390","429809","430858","429688","429809","325381","New experiment","yes","1024"
"<opensesame_plugins.lsl_start.liblsl.LSL_session object at 0x0000011CA6C73C88>","1","black","[0.0, 0.0]","legacy","0","uniform","98","0","2","0","0","98","98","98","98","2","NA","98","NA","0","2","0","98","98","98","98","98","NA","98","98","2","Wed Nov 17 13:14:40 2021","-8","The main experiment item","yes","experiment.osexp","C:/Users/elus/Demant/+Team OMEXP - Article/ISAAR 2021/Data/experiments","no","mono","no","18","no","white","no","Next","400","no","768","26","2","26","C:/Users/elus/Documents/RecordingLSL_maybefinal/subject-1.csv","10","[<opensesame_plugins.lsl_start.liblsl.LSL_session object at 0x0000011CA6C73C88>]","Kafkaesque Koffka","3.2.7","3","0","2","1024","2","48000","-16","experiment","0","1","odd","NA","19930","324379","NA","6002","438092","435088","436090","437091","NA","NA","438092","NA","NA","324381","17930","434072","435589","436591","437592","434021","435072","433892","434021","325381","New experiment","yes","1024"
"<opensesame_plugins.lsl_start.liblsl.LSL_session object at 0x0000011CA6C73C88>","0","black","[0.0, 0.0]","legacy","0","uniform","99","0","2","0","0","99","99","99","99","2","NA","99","NA","0","2","0","99","99","99","99","99","NA","99","99","2","Wed Nov 17 13:14:40 2021","-8","The main experiment item","yes","experiment.osexp","C:/Users/elus/Demant/+Team OMEXP - Article/ISAAR 2021/Data/experiments","no","mono","no","18","no","white","no","Next","400","no","768","27","2","27","C:/Users/elus/Documents/RecordingLSL_maybefinal/subject-1.csv","10","[<opensesame_plugins.lsl_start.liblsl.LSL_session object at 0x0000011CA6C73C88>]","Kafkaesque Koffka","3.2.7","1","0","2","1024","2","48000","-16","experiment","0","1","odd","NA","19930","324379","NA","6002","442302","439297","440299","441301","NA","NA","442302","NA","NA","324381","17930","438269","439798","440800","441802","438224","439269","438097","438224","325381","New experiment","yes","1024"
"<opensesame_plugins.lsl_start.liblsl.LSL_session object at 0x0000011CA6C73C88>","1","black","[0.0, 0.0]","legacy","0","uniform","100","0","2","0","0","100","100","100","100","2","NA","100","NA","0","2","0","100","100","100","100","100","NA","100","100","2","Wed Nov 17 13:14:40 2021","-7.5","The main experiment item","yes","experiment.osexp","C:/Users/elus/Demant/+Team OMEXP - Article/ISAAR 2021/Data/experiments","no","mono","no","18","no","white","no","Next","400","no","768","28","2","28","C:/Users/elus/Documents/RecordingLSL_maybefinal/subject-1.csv","10","[<opensesame_plugins.lsl_start.liblsl.LSL_session object at 0x0000011CA6C73C88>]","Kafkaesque Koffka","3.2.7","2","0","2","1024","2","48000","-16","experiment","0","1","odd","NA","19930","324379","NA","6002","446505","443497","444501","445503","NA","NA","446505","NA","NA","324381","17930","442472","443998","445002","446005","442428","443472","442304","442428","325381","New experiment","yes","1024"
"<opensesame_plugins.lsl_start.liblsl.LSL_session object at 0x0000011CA6C73C88>","1","black","[0.0, 0.0]","legacy","0","uniform","101","0","2","0","0","101","101","101","101","2","NA","101","NA","0","2","0","101","101","101","101","101","NA","101","101","2","Wed Nov 17 13:14:40 2021","-7.5","The main experiment item","yes","experiment.osexp","C:/Users/elus/Demant/+Team OMEXP - Article/ISAAR 2021/Data/experiments","no","mono","no","18","no","white","no","Next","400","no","768","29","2","29","C:/Users/elus/Documents/RecordingLSL_maybefinal/subject-1.csv","10","[<opensesame_plugins.lsl_start.liblsl.LSL_session object at 0x0000011CA6C73C88>]","Kafkaesque Koffka","3.2.7","3","0","2","1024","2","48000","-16","experiment","0","1","odd","NA","19930","324379","NA","6002","450702","447695","448699","449701","NA","NA","450702","NA","NA","324381","17930","446669","448196","449200","450202","446632","447669","446509","446632","325381","New experiment","yes","1024"
"<opensesame_plugins.lsl_start.liblsl.LSL_session object at 0x0000011CA6C73C88>","0","black","[0.0, 0.0]","legacy","0","uniform","102","0","2","0","0","102","102","102","102","2","NA","102","NA","0","2","0","102","102","102","102","102","NA","102","102","2","Wed Nov 17 13:14:40 2021","-7.5","The main experiment item","yes","experiment.osexp","C:/Users/elus/Demant/+Team OMEXP - Article/ISAAR 2021/Data/experiments","no","mono","no","18","no","white","no","Next","400","no","768","30","2","30","C:/Users/elus/Documents/RecordingLSL_maybefinal/subject-1.csv","10","[<opensesame_plugins.lsl_start.liblsl.LSL_session object at 0x0000011CA6C73C88>]","Kafkaesque Koffka","3.2.7","1","0","2","1024","2","48000","-16","experiment","0","1","odd","NA","19930","324379","NA","6002","454913","451903","452910","453912","NA","NA","454913","NA","NA","324381","17930","450879","452409","453411","454413","450832","451880","450707","450832","325381","New experiment","yes","1024"
