"LSL","answer","background","calibration","canvas_backend","compensation","coordinates","count_change","count_cond_loop","count_condition","count_end","count_experiment","count_generate_answer","count_neutral","count_neutral_2","count_neutral_3","count_new_adaptive_init","count_new_calibration_light","count_new_logger","count_new_lsl_start_1","count_new_lsl_stop","count_new_sketchpad","count_new_sketchpad_1","count_new_sketchpad_2","count_sig1","count_sig2","count_sig3","count_sound_generation","count_stimulus","count_tracking","count_trial","count_trial_loop","datetime","depth","description","disable_garbage_collection","experiment_file","experiment_path","font_bold","font_family","font_italic","font_size","font_underline","foreground","form_clicks","form_response","frequency","fullscreen","height","live_row","live_row_cond_loop","live_row_trial_loop","logfile","mod_freq","notifiers","opensesame_codename","opensesame_version","position","repeat_cycle","round_decimals","sound_buf_size","sound_channels","sound_freq","sound_sample_size","start","stop","subject_nr","subject_parity","time_change","time_cond_loop","time_condition","time_end","time_experiment","time_generate_answer","time_neutral","time_neutral_2","time_neutral_3","time_new_adaptive_init","time_new_calibration_light","time_new_logger","time_new_lsl_start_1","time_new_lsl_stop","time_new_sketchpad","time_new_sketchpad_1","time_new_sketchpad_2","time_sig1","time_sig2","time_sig3","time_sound_generation","time_stimulus","time_tracking","time_trial","time_trial_loop","title","uniform_coordinates","width"
"<opensesame_plugins.lsl_start.liblsl.LSL_session object at 0x000001CE58434C88>","1","black","[0.0, 0.0]","legacy","0","uniform","0","0","0","0","0","0","0","0","0","0","NA","0","NA","0","0","0","0","0","0","0","0","NA","0","0","0","Thu Nov 18 08:12:19 2021","-6","The main experiment item","yes","experiment.osexp","C:/Users/elus/Demant/+Team OMEXP - Article/ISAAR 2021/Data/experiments","no","mono","no","18","no","white","no","Next","400","no","768","0","0","0","C:/Users/elus/Documents/RecordingLSL_maybefinal/subject-11.csv","5","[<opensesame_plugins.lsl_start.liblsl.LSL_session object at 0x000001CE58434C88>]","Kafkaesque Koffka","3.2.7","1","0","2","1024","2","48000","-16","experiment","0","11","odd","NA","13804","13854","NA","5968","19012","16003","17007","18010","NA","NA","19014","NA","NA","13857","11804","14991","16505","17509","18512","14921","15991","NA","14921","14857","New experiment","yes","1024"
"<opensesame_plugins.lsl_start.liblsl.LSL_session object at 0x000001CE58434C88>","1","black","[0.0, 0.0]","legacy","0","uniform","1","0","0","0","0","1","1","1","1","0","NA","1","NA","0","0","0","1","1","1","1","1","NA","1","1","0","Thu Nov 18 08:12:19 2021","-6","The main experiment item","yes","experiment.osexp","C:/Users/elus/Demant/+Team OMEXP - Article/ISAAR 2021/Data/experiments","no","mono","no","18","no","white","no","Next","400","no","768","1","0","1","C:/Users/elus/Documents/RecordingLSL_maybefinal/subject-11.csv","5","[<opensesame_plugins.lsl_start.liblsl.LSL_session object at 0x000001CE58434C88>]","Kafkaesque Koffka","3.2.7","2","0","2","1024","2","48000","-16","experiment","0","11","odd","NA","13804","13854","NA","5968","23199","20190","21194","22197","NA","NA","23199","NA","NA","13857","11804","19178","20692","21696","22699","19129","20178","19020","19128","14857","New experiment","yes","1024"
"<opensesame_plugins.lsl_start.liblsl.LSL_session object at 0x000001CE58434C88>","1","black","[0.0, 0.0]","legacy","0","uniform","2","0","0","0","0","2","2","2","2","0","NA","2","NA","0","0","0","2","2","2","2","2","NA","2","2","0","Thu Nov 18 08:12:19 2021","-6","The main experiment item","yes","experiment.osexp","C:/Users/elus/Demant/+Team OMEXP - Article/ISAAR 2021/Data/experiments","no","mono","no","18","no","white","no","Next","400","no","768","2","0","2","C:/Users/elus/Documents/RecordingLSL_maybefinal/subject-11.csv","5","[<opensesame_plugins.lsl_start.liblsl.LSL_session object at 0x000001CE58434C88>]","Kafkaesque Koffka","3.2.7","3","0","2","1024","2","48000","-16","experiment","0","11","odd","NA","13804","13854","NA","5968","27480","24459","25473","26478","NA","NA","27480","NA","NA","13857","11804","23423","24961","25975","26980","23364","24424","23202","23364","14857","New experiment","yes","1024"
"<opensesame_plugins.lsl_start.liblsl.LSL_session object at 0x000001CE58434C88>","1","black","[0.0, 0.0]","legacy","0","uniform","3","0","0","0","0","3","3","3","3","0","NA","3","NA","0","0","0","3","3","3","3","3","NA","3","3","0","Thu Nov 18 08:12:19 2021","-7","The main experiment item","yes","experiment.osexp","C:/Users/elus/Demant/+Team OMEXP - Article/ISAAR 2021/Data/experiments","no","mono","no","18","no","white","no","Next","400","no","768","3","0","3","C:/Users/elus/Documents/RecordingLSL_maybefinal/subject-11.csv","5","[<opensesame_plugins.lsl_start.liblsl.LSL_session object at 0x000001CE58434C88>]","Kafkaesque Koffka","3.2.7","1","0","2","1024","2","48000","-16","experiment","0","11","odd","NA","13804","13854","NA","5968","31699","28692","29694","30697","NA","NA","31699","NA","NA","13857","11804","27674","29193","30195","31199","27645","28674","27483","27644","14857","New experiment","yes","1024"
"<opensesame_plugins.lsl_start.liblsl.LSL_session object at 0x000001CE58434C88>","1","black","[0.0, 0.0]","legacy","0","uniform","4","0","0","0","0","4","4","4","4","0","NA","4","NA","0","0","0","4","4","4","4","4","NA","4","4","0","Thu Nov 18 08:12:19 2021","-7","The main experiment item","yes","experiment.osexp","C:/Users/elus/Demant/+Team OMEXP - Article/ISAAR 2021/Data/experiments","no","mono","no","18","no","white","no","Next","400","no","768","4","0","4","C:/Users/elus/Documents/RecordingLSL_maybefinal/subject-11.csv","5","[<opensesame_plugins.lsl_start.liblsl.LSL_session object at 0x000001CE58434C88>]","Kafkaesque Koffka","3.2.7","2","0","2","1024","2","48000","-16","experiment","0","11","odd","NA","13804","13854","NA","5968","35922","32912","33914","34920","NA","NA","35922","NA","NA","13857","11804","31897","33413","34415","35422","31868","32897","31702","31868","14857","New experiment","yes","1024"
"<opensesame_plugins.lsl_start.liblsl.LSL_session object at 0x000001CE58434C88>","1","black","[0.0, 0.0]","legacy","0","uniform","5","0","0","0","0","5","5","5","5","0","NA","5","NA","0","0","0","5","5","5","5","5","NA","5","5","0","Thu Nov 18 08:12:19 2021","-7","The main experiment item","yes","experiment.osexp","C:/Users/elus/Demant/+Team OMEXP - Article/ISAAR 2021/Data/experiments","no","mono","no","18","no","white","no","Next","400","no","768","5","0","5","C:/Users/elus/Documents/RecordingLSL_maybefinal/subject-11.csv","5","[<opensesame_plugins.lsl_start.liblsl.LSL_session object at 0x000001CE58434C88>]","Kafkaesque Koffka","3.2.7","3","0","2","1024","2","48000","-16","experiment","0","11","odd","NA","13804","13854","NA","5968","40169","37161","38164","39168","NA","NA","40169","NA","NA","13857","11804","36140","37663","38666","39669","36110","37140","35925","36109","14857","New experiment","yes","1024"
"<opensesame_plugins.lsl_start.liblsl.LSL_session object at 0x000001CE58434C88>","0","black","[0.0, 0.0]","legacy","0","uniform","6","0","0","0","0","6","6","6","6","0","NA","6","NA","0","0","0","6","6","6","6","6","NA","6","6","0","Thu Nov 18 08:12:19 2021","-8","The main experiment item","yes","experiment.osexp","C:/Users/elus/Demant/+Team OMEXP - Article/ISAAR 2021/Data/experiments","no","mono","no","18","no","white","no","Next","400","no","768","6","0","6","C:/Users/elus/Documents/RecordingLSL_maybefinal/subject-11.csv","5","[<opensesame_plugins.lsl_start.liblsl.LSL_session object at 0x000001CE58434C88>]","Kafkaesque Koffka","3.2.7","1","0","2","1024","2","48000","-16","experiment","0","11","odd","NA","13804","13854","NA","5968","44316","41310","42313","43315","NA","NA","44316","NA","NA","13857","11804","40301","41812","42814","43816","40267","41301","40171","40267","14857","New experiment","yes","1024"
"<opensesame_plugins.lsl_start.liblsl.LSL_session object at 0x000001CE58434C88>","1","black","[0.0, 0.0]","legacy","0","uniform","7","0","0","0","0","7","7","7","7","0","NA","7","NA","0","0","0","7","7","7","7","7","NA","7","7","0","Thu Nov 18 08:12:19 2021","-7.5","The main experiment item","yes","experiment.osexp","C:/Users/elus/Demant/+Team OMEXP - Article/ISAAR 2021/Data/experiments","no","mono","no","18","no","white","no","Next","400","no","768","7","0","7","C:/Users/elus/Documents/RecordingLSL_maybefinal/subject-11.csv","5","[<opensesame_plugins.lsl_start.liblsl.LSL_session object at 0x000001CE58434C88>]","Kafkaesque Koffka","3.2.7","2","0","2","1024","2","48000","-16","experiment","0","11","odd","NA","13804","13854","NA","5968","48457","45452","46454","47456","NA","NA","48457","NA","NA","13857","11804","44441","45953","46955","47957","44406","45442","44318","44406","14857","New experiment","yes","1024"
"<opensesame_plugins.lsl_start.liblsl.LSL_session object at 0x000001CE58434C88>","1","black","[0.0, 0.0]","legacy","0","uniform","8","0","0","0","0","8","8","8","8","0","NA","8","NA","0","0","0","8","8","8","8","8","NA","8","8","0","Thu Nov 18 08:12:19 2021","-7.5","The main experiment item","yes","experiment.osexp","C:/Users/elus/Demant/+Team OMEXP - Article/ISAAR 2021/Data/experiments","no","mono","no","18","no","white","no","Next","400","no","768","8","0","8","C:/Users/elus/Documents/RecordingLSL_maybefinal/subject-11.csv","5","[<opensesame_plugins.lsl_start.liblsl.LSL_session object at 0x000001CE58434C88>]","Kafkaesque Koffka","3.2.7","3","0","2","1024","2","48000","-16","experiment","0","11","odd","NA","13804","13854","NA","5968","52595","49588","50591","51594","NA","NA","52595","NA","NA","13857","11804","48575","50089","51093","52095","48543","49575","48459","48542","14857","New experiment","yes","1024"
"<opensesame_plugins.lsl_start.liblsl.LSL_session object at 0x000001CE58434C88>","1","black","[0.0, 0.0]","legacy","0","uniform","9","0","0","0","0","9","9","9","9","0","NA","9","NA","0","0","0","9","9","9","9","9","NA","9","9","0","Thu Nov 18 08:12:19 2021","-7.5","The main experiment item","yes","experiment.osexp","C:/Users/elus/Demant/+Team OMEXP - Article/ISAAR 2021/Data/experiments","no","mono","no","18","no","white","no","Next","400","no","768","9","0","9","C:/Users/elus/Documents/RecordingLSL_maybefinal/subject-11.csv","5","[<opensesame_plugins.lsl_start.liblsl.LSL_session object at 0x000001CE58434C88>]","Kafkaesque Koffka","3.2.7","1","0","2","1024","2","48000","-16","experiment","0","11","odd","NA","13804","13854","NA","5968","56733","53728","54730","55732","NA","NA","56733","NA","NA","13857","11804","52718","54229","55231","56233","52682","53718","52599","52682","14857","New experiment","yes","1024"
"<opensesame_plugins.lsl_start.liblsl.LSL_session object at 0x000001CE58434C88>","0","black","[0.0, 0.0]","legacy","0","uniform","10","0","0","0","0","10","10","10","10","0","NA","10","NA","0","0","0","10","10","10","10","10","NA","10","10","0","Thu Nov 18 08:12:19 2021","-8","The main experiment item","yes","experiment.osexp","C:/Users/elus/Demant/+Team OMEXP - Article/ISAAR 2021/Data/experiments","no","mono","no","18","no","white","no","Next","400","no","768","10","0","10","C:/Users/elus/Documents/RecordingLSL_maybefinal/subject-11.csv","5","[<opensesame_plugins.lsl_start.liblsl.LSL_session object at 0x000001CE58434C88>]","Kafkaesque Koffka","3.2.7","2","0","2","1024","2","48000","-16","experiment","0","11","odd","NA","13804","13854","NA","5968","60863","57858","58860","59862","NA","NA","60863","NA","NA","13857","11804","56849","58359","59361","60363","56818","57849","56735","56818","14857","New experiment","yes","1024"
"<opensesame_plugins.lsl_start.liblsl.LSL_session object at 0x000001CE58434C88>","1","black","[0.0, 0.0]","legacy","0","uniform","11","0","0","0","0","11","11","11","11","0","NA","11","NA","0","0","0","11","11","11","11","11","NA","11","11","0","Thu Nov 18 08:12:19 2021","-7.5","The main experiment item","yes","experiment.osexp","C:/Users/elus/Demant/+Team OMEXP - Article/ISAAR 2021/Data/experiments","no","mono","no","18","no","white","no","Next","400","no","768","11","0","11","C:/Users/elus/Documents/RecordingLSL_maybefinal/subject-11.csv","5","[<opensesame_plugins.lsl_start.liblsl.LSL_session object at 0x000001CE58434C88>]","Kafkaesque Koffka","3.2.7","3","0","2","1024","2","48000","-16","experiment","0","11","odd","NA","13804","13854","NA","5968","64994","61989","62991","63993","NA","NA","64994","NA","NA","13857","11804","60978","62490","63492","64494","60945","61978","60865","60945","14857","New experiment","yes","1024"
"<opensesame_plugins.lsl_start.liblsl.LSL_session object at 0x000001CE58434C88>","1","black","[0.0, 0.0]","legacy","0","uniform","12","0","0","0","0","12","12","12","12","0","NA","12","NA","0","0","0","12","12","12","12","12","NA","12","12","0","Thu Nov 18 08:12:19 2021","-7.5","The main experiment item","yes","experiment.osexp","C:/Users/elus/Demant/+Team OMEXP - Article/ISAAR 2021/Data/experiments","no","mono","no","18","no","white","no","Next","400","no","768","12","0","12","C:/Users/elus/Documents/RecordingLSL_maybefinal/subject-11.csv","5","[<opensesame_plugins.lsl_start.liblsl.LSL_session object at 0x000001CE58434C88>]","Kafkaesque Koffka","3.2.7","1","0","2","1024","2","48000","-16","experiment","0","11","odd","NA","13804","13854","NA","5968","69135","66130","67132","68134","NA","NA","69135","NA","NA","13857","11804","65118","66631","67633","68635","65083","66118","64996","65083","14857","New experiment","yes","1024"
"<opensesame_plugins.lsl_start.liblsl.LSL_session object at 0x000001CE58434C88>","1","black","[0.0, 0.0]","legacy","0","uniform","13","0","0","0","0","13","13","13","13","0","NA","13","NA","0","0","0","13","13","13","13","13","NA","13","13","0","Thu Nov 18 08:12:19 2021","-7.5","The main experiment item","yes","experiment.osexp","C:/Users/elus/Demant/+Team OMEXP - Article/ISAAR 2021/Data/experiments","no","mono","no","18","no","white","no","Next","400","no","768","13","0","13","C:/Users/elus/Documents/RecordingLSL_maybefinal/subject-11.csv","5","[<opensesame_plugins.lsl_start.liblsl.LSL_session object at 0x000001CE58434C88>]","Kafkaesque Koffka","3.2.7","2","0","2","1024","2","48000","-16","experiment","0","11","odd","NA","13804","13854","NA","5968","73289","70284","71286","72288","NA","NA","73289","NA","NA","13857","11804","69262","70785","71787","72789","69230","70262","69137","69230","14857","New experiment","yes","1024"
"<opensesame_plugins.lsl_start.liblsl.LSL_session object at 0x000001CE58434C88>","1","black","[0.0, 0.0]","legacy","0","uniform","14","0","0","0","0","14","14","14","14","0","NA","14","NA","0","0","0","14","14","14","14","14","NA","14","14","0","Thu Nov 18 08:12:19 2021","-8","The main experiment item","yes","experiment.osexp","C:/Users/elus/Demant/+Team OMEXP - Article/ISAAR 2021/Data/experiments","no","mono","no","18","no","white","no","Next","400","no","768","14","0","14","C:/Users/elus/Documents/RecordingLSL_maybefinal/subject-11.csv","5","[<opensesame_plugins.lsl_start.liblsl.LSL_session object at 0x000001CE58434C88>]","Kafkaesque Koffka","3.2.7","3","0","2","1024","2","48000","-16","experiment","0","11","odd","NA","13804","13854","NA","5968","77491","74481","75483","76486","NA","NA","77491","NA","NA","13857","11804","73464","74982","75985","76991","73428","74464","73300","73428","14857","New experiment","yes","1024"
"<opensesame_plugins.lsl_start.liblsl.LSL_session object at 0x000001CE58434C88>","1","black","[0.0, 0.0]","legacy","0","uniform","15","0","0","0","0","15","15","15","15","0","NA","15","NA","0","0","0","15","15","15","15","15","NA","15","15","0","Thu Nov 18 08:12:19 2021","-8","The main experiment item","yes","experiment.osexp","C:/Users/elus/Demant/+Team OMEXP - Article/ISAAR 2021/Data/experiments","no","mono","no","18","no","white","no","Next","400","no","768","15","0","15","C:/Users/elus/Documents/RecordingLSL_maybefinal/subject-11.csv","5","[<opensesame_plugins.lsl_start.liblsl.LSL_session object at 0x000001CE58434C88>]","Kafkaesque Koffka","3.2.7","1","0","2","1024","2","48000","-16","experiment","0","11","odd","NA","13804","13854","NA","5968","81633","78628","79630","80632","NA","NA","81633","NA","NA","13857","11804","77612","79129","80131","81133","77582","78612","77500","77582","14857","New experiment","yes","1024"
"<opensesame_plugins.lsl_start.liblsl.LSL_session object at 0x000001CE58434C88>","0","black","[0.0, 0.0]","legacy","0","uniform","16","0","0","0","0","16","16","16","16","0","NA","16","NA","0","0","0","16","16","16","16","16","NA","16","16","0","Thu Nov 18 08:12:19 2021","-8","The main experiment item","yes","experiment.osexp","C:/Users/elus/Demant/+Team OMEXP - Article/ISAAR 2021/Data/experiments","no","mono","no","18","no","white","no","Next","400","no","768","16","0","16","C:/Users/elus/Documents/RecordingLSL_maybefinal/subject-11.csv","5","[<opensesame_plugins.lsl_start.liblsl.LSL_session object at 0x000001CE58434C88>]","Kafkaesque Koffka","3.2.7","2","0","2","1024","2","48000","-16","experiment","0","11","odd","NA","13804","13854","NA","5968","85756","82750","83752","84755","NA","NA","85756","NA","NA","13857","11804","81741","83251","84253","85256","81714","82741","81635","81714","14857","New experiment","yes","1024"
"<opensesame_plugins.lsl_start.liblsl.LSL_session object at 0x000001CE58434C88>","1","black","[0.0, 0.0]","legacy","0","uniform","17","0","0","0","0","17","17","17","17","0","NA","17","NA","0","0","0","17","17","17","17","17","NA","17","17","0","Thu Nov 18 08:12:19 2021","-7.5","The main experiment item","yes","experiment.osexp","C:/Users/elus/Demant/+Team OMEXP - Article/ISAAR 2021/Data/experiments","no","mono","no","18","no","white","no","Next","400","no","768","17","0","17","C:/Users/elus/Documents/RecordingLSL_maybefinal/subject-11.csv","5","[<opensesame_plugins.lsl_start.liblsl.LSL_session object at 0x000001CE58434C88>]","Kafkaesque Koffka","3.2.7","3","0","2","1024","2","48000","-16","experiment","0","11","odd","NA","13804","13854","NA","5968","89884","86879","87881","88883","NA","NA","89884","NA","NA","13857","11804","85865","87380","88382","89384","85836","86865","85758","85835","14857","New experiment","yes","1024"
"<opensesame_plugins.lsl_start.liblsl.LSL_session object at 0x000001CE58434C88>","1","black","[0.0, 0.0]","legacy","0","uniform","18","0","0","0","0","18","18","18","18","0","NA","18","NA","0","0","0","18","18","18","18","18","NA","18","18","0","Thu Nov 18 08:12:19 2021","-7.5","The main experiment item","yes","experiment.osexp","C:/Users/elus/Demant/+Team OMEXP - Article/ISAAR 2021/Data/experiments","no","mono","no","18","no","white","no","Next","400","no","768","18","0","18","C:/Users/elus/Documents/RecordingLSL_maybefinal/subject-11.csv","5","[<opensesame_plugins.lsl_start.liblsl.LSL_session object at 0x000001CE58434C88>]","Kafkaesque Koffka","3.2.7","1","0","2","1024","2","48000","-16","experiment","0","11","odd","NA","13804","13854","NA","5968","94014","91009","92011","93013","NA","NA","94014","NA","NA","13857","11804","89999","91510","92512","93514","89968","90999","89890","89968","14857","New experiment","yes","1024"
"<opensesame_plugins.lsl_start.liblsl.LSL_session object at 0x000001CE58434C88>","1","black","[0.0, 0.0]","legacy","0","uniform","19","0","0","0","0","19","19","19","19","0","NA","19","NA","0","0","0","19","19","19","19","19","NA","19","19","0","Thu Nov 18 08:12:19 2021","-7.5","The main experiment item","yes","experiment.osexp","C:/Users/elus/Demant/+Team OMEXP - Article/ISAAR 2021/Data/experiments","no","mono","no","18","no","white","no","Next","400","no","768","19","0","19","C:/Users/elus/Documents/RecordingLSL_maybefinal/subject-11.csv","5","[<opensesame_plugins.lsl_start.liblsl.LSL_session object at 0x000001CE58434C88>]","Kafkaesque Koffka","3.2.7","2","0","2","1024","2","48000","-16","experiment","0","11","odd","NA","13804","13854","NA","5968","98156","95149","96153","97155","NA","NA","98156","NA","NA","13857","11804","94135","95650","96654","97656","94102","95135","94016","94102","14857","New experiment","yes","1024"
"<opensesame_plugins.lsl_start.liblsl.LSL_session object at 0x000001CE58434C88>","1","black","[0.0, 0.0]","legacy","0","uniform","20","0","0","0","0","20","20","20","20","0","NA","20","NA","0","0","0","20","20","20","20","20","NA","20","20","0","Thu Nov 18 08:12:19 2021","-8","The main experiment item","yes","experiment.osexp","C:/Users/elus/Demant/+Team OMEXP - Article/ISAAR 2021/Data/experiments","no","mono","no","18","no","white","no","Next","400","no","768","20","0","20","C:/Users/elus/Documents/RecordingLSL_maybefinal/subject-11.csv","5","[<opensesame_plugins.lsl_start.liblsl.LSL_session object at 0x000001CE58434C88>]","Kafkaesque Koffka","3.2.7","3","0","2","1024","2","48000","-16","experiment","0","11","odd","NA","13804","13854","NA","5968","102306","99299","100301","101303","NA","NA","102306","NA","NA","13857","11804","98283","99800","100802","101805","98244","99283","98158","98244","14857","New experiment","yes","1024"
"<opensesame_plugins.lsl_start.liblsl.LSL_session object at 0x000001CE58434C88>","1","black","[0.0, 0.0]","legacy","0","uniform","21","0","0","0","0","21","21","21","21","0","NA","21","NA","0","0","0","21","21","21","21","21","NA","21","21","0","Thu Nov 18 08:12:19 2021","-8","The main experiment item","yes","experiment.osexp","C:/Users/elus/Demant/+Team OMEXP - Article/ISAAR 2021/Data/experiments","no","mono","no","18","no","white","no","Next","400","no","768","21","0","21","C:/Users/elus/Documents/RecordingLSL_maybefinal/subject-11.csv","5","[<opensesame_plugins.lsl_start.liblsl.LSL_session object at 0x000001CE58434C88>]","Kafkaesque Koffka","3.2.7","1","0","2","1024","2","48000","-16","experiment","0","11","odd","NA","13804","13854","NA","5968","106435","103429","104431","105433","NA","NA","106435","NA","NA","13857","11804","102418","103930","104931","105935","102387","103418","102312","102387","14857","New experiment","yes","1024"
"<opensesame_plugins.lsl_start.liblsl.LSL_session object at 0x000001CE58434C88>","1","black","[0.0, 0.0]","legacy","0","uniform","22","0","0","0","0","22","22","22","22","0","NA","22","NA","0","0","0","22","22","22","22","22","NA","22","22","0","Thu Nov 18 08:12:19 2021","-8","The main experiment item","yes","experiment.osexp","C:/Users/elus/Demant/+Team OMEXP - Article/ISAAR 2021/Data/experiments","no","mono","no","18","no","white","no","Next","400","no","768","22","0","22","C:/Users/elus/Documents/RecordingLSL_maybefinal/subject-11.csv","5","[<opensesame_plugins.lsl_start.liblsl.LSL_session object at 0x000001CE58434C88>]","Kafkaesque Koffka","3.2.7","2","0","2","1024","2","48000","-16","experiment","0","11","odd","NA","13804","13854","NA","5968","110575","107569","108572","109574","NA","NA","110575","NA","NA","13857","11804","106556","108070","109073","110075","106526","107556","106442","106526","14857","New experiment","yes","1024"
"<opensesame_plugins.lsl_start.liblsl.LSL_session object at 0x000001CE58434C88>","1","black","[0.0, 0.0]","legacy","0","uniform","23","0","0","0","0","23","23","23","23","0","NA","23","NA","0","0","0","23","23","23","23","23","NA","23","23","0","Thu Nov 18 08:12:19 2021","-8.5","The main experiment item","yes","experiment.osexp","C:/Users/elus/Demant/+Team OMEXP - Article/ISAAR 2021/Data/experiments","no","mono","no","18","no","white","no","Next","400","no","768","23","0","23","C:/Users/elus/Documents/RecordingLSL_maybefinal/subject-11.csv","5","[<opensesame_plugins.lsl_start.liblsl.LSL_session object at 0x000001CE58434C88>]","Kafkaesque Koffka","3.2.7","3","0","2","1024","2","48000","-16","experiment","0","11","odd","NA","13804","13854","NA","5968","114717","111710","112713","113716","NA","NA","114717","NA","NA","13857","11804","110695","112211","113214","114217","110664","111695","110579","110663","14857","New experiment","yes","1024"
"<opensesame_plugins.lsl_start.liblsl.LSL_session object at 0x000001CE58434C88>","0","black","[0.0, 0.0]","legacy","0","uniform","24","0","0","0","0","24","24","24","24","0","NA","24","NA","0","0","0","24","24","24","24","24","NA","24","24","0","Thu Nov 18 08:12:19 2021","-8.5","The main experiment item","yes","experiment.osexp","C:/Users/elus/Demant/+Team OMEXP - Article/ISAAR 2021/Data/experiments","no","mono","no","18","no","white","no","Next","400","no","768","24","0","24","C:/Users/elus/Documents/RecordingLSL_maybefinal/subject-11.csv","5","[<opensesame_plugins.lsl_start.liblsl.LSL_session object at 0x000001CE58434C88>]","Kafkaesque Koffka","3.2.7","1","0","2","1024","2","48000","-16","experiment","0","11","odd","NA","13804","13854","NA","5968","118885","115875","116881","117883","NA","NA","118885","NA","NA","13857","11804","114858","116376","117382","118385","114808","115858","114726","114808","14857","New experiment","yes","1024"
"<opensesame_plugins.lsl_start.liblsl.LSL_session object at 0x000001CE58434C88>","1","black","[0.0, 0.0]","legacy","0","uniform","25","0","0","0","0","25","25","25","25","0","NA","25","NA","0","0","0","25","25","25","25","25","NA","25","25","0","Thu Nov 18 08:12:19 2021","-8","The main experiment item","yes","experiment.osexp","C:/Users/elus/Demant/+Team OMEXP - Article/ISAAR 2021/Data/experiments","no","mono","no","18","no","white","no","Next","400","no","768","25","0","25","C:/Users/elus/Documents/RecordingLSL_maybefinal/subject-11.csv","5","[<opensesame_plugins.lsl_start.liblsl.LSL_session object at 0x000001CE58434C88>]","Kafkaesque Koffka","3.2.7","2","0","2","1024","2","48000","-16","experiment","0","11","odd","NA","13804","13854","NA","5968","123037","120031","121033","122036","NA","NA","123037","NA","NA","13857","11804","119021","120532","121535","122537","118995","120021","118889","118995","14857","New experiment","yes","1024"
"<opensesame_plugins.lsl_start.liblsl.LSL_session object at 0x000001CE58434C88>","0","black","[0.0, 0.0]","legacy","0","uniform","26","0","0","0","0","26","26","26","26","0","NA","26","NA","0","0","0","26","26","26","26","26","NA","26","26","0","Thu Nov 18 08:12:19 2021","-8","The main experiment item","yes","experiment.osexp","C:/Users/elus/Demant/+Team OMEXP - Article/ISAAR 2021/Data/experiments","no","mono","no","18","no","white","no","Next","400","no","768","26","0","26","C:/Users/elus/Documents/RecordingLSL_maybefinal/subject-11.csv","5","[<opensesame_plugins.lsl_start.liblsl.LSL_session object at 0x000001CE58434C88>]","Kafkaesque Koffka","3.2.7","3","0","2","1024","2","48000","-16","experiment","0","11","odd","NA","13804","13854","NA","5968","127183","124178","125180","126182","NA","NA","127183","NA","NA","13857","11804","123162","124679","125681","126683","123132","124162","123041","123132","14857","New experiment","yes","1024"
"<opensesame_plugins.lsl_start.liblsl.LSL_session object at 0x000001CE58434C88>","1","black","[0.0, 0.0]","legacy","0","uniform","27","0","0","0","0","27","27","27","27","0","NA","27","NA","0","0","0","27","27","27","27","27","NA","27","27","0","Thu Nov 18 08:12:19 2021","-7.5","The main experiment item","yes","experiment.osexp","C:/Users/elus/Demant/+Team OMEXP - Article/ISAAR 2021/Data/experiments","no","mono","no","18","no","white","no","Next","400","no","768","27","0","27","C:/Users/elus/Documents/RecordingLSL_maybefinal/subject-11.csv","5","[<opensesame_plugins.lsl_start.liblsl.LSL_session object at 0x000001CE58434C88>]","Kafkaesque Koffka","3.2.7","1","0","2","1024","2","48000","-16","experiment","0","11","odd","NA","13804","13854","NA","5968","131323","128318","129320","130322","NA","NA","131323","NA","NA","13857","11804","127306","128819","129821","130823","127277","128306","127185","127277","14857","New experiment","yes","1024"
"<opensesame_plugins.lsl_start.liblsl.LSL_session object at 0x000001CE58434C88>","1","black","[0.0, 0.0]","legacy","0","uniform","28","0","0","0","0","28","28","28","28","0","NA","28","NA","0","0","0","28","28","28","28","28","NA","28","28","0","Thu Nov 18 08:12:19 2021","-7.5","The main experiment item","yes","experiment.osexp","C:/Users/elus/Demant/+Team OMEXP - Article/ISAAR 2021/Data/experiments","no","mono","no","18","no","white","no","Next","400","no","768","28","0","28","C:/Users/elus/Documents/RecordingLSL_maybefinal/subject-11.csv","5","[<opensesame_plugins.lsl_start.liblsl.LSL_session object at 0x000001CE58434C88>]","Kafkaesque Koffka","3.2.7","2","0","2","1024","2","48000","-16","experiment","0","11","odd","NA","13804","13854","NA","5968","135463","132458","133460","134462","NA","NA","135463","NA","NA","13857","11804","131447","132959","133961","134963","131415","132447","131325","131415","14857","New experiment","yes","1024"
"<opensesame_plugins.lsl_start.liblsl.LSL_session object at 0x000001CE58434C88>","1","black","[0.0, 0.0]","legacy","0","uniform","29","0","0","0","0","29","29","29","29","0","NA","29","NA","0","0","0","29","29","29","29","29","NA","29","29","0","Thu Nov 18 08:12:19 2021","-7.5","The main experiment item","yes","experiment.osexp","C:/Users/elus/Demant/+Team OMEXP - Article/ISAAR 2021/Data/experiments","no","mono","no","18","no","white","no","Next","400","no","768","29","0","29","C:/Users/elus/Documents/RecordingLSL_maybefinal/subject-11.csv","5","[<opensesame_plugins.lsl_start.liblsl.LSL_session object at 0x000001CE58434C88>]","Kafkaesque Koffka","3.2.7","3","0","2","1024","2","48000","-16","experiment","0","11","odd","NA","13804","13854","NA","5968","139613","136608","137610","138612","NA","NA","139613","NA","NA","13857","11804","135590","137109","138111","139113","135558","136590","135469","135558","14857","New experiment","yes","1024"
"<opensesame_plugins.lsl_start.liblsl.LSL_session object at 0x000001CE58434C88>","1","black","[0.0, 0.0]","legacy","0","uniform","30","0","0","0","0","30","30","30","30","0","NA","30","NA","0","0","0","30","30","30","30","30","NA","30","30","0","Thu Nov 18 08:12:19 2021","-8","The main experiment item","yes","experiment.osexp","C:/Users/elus/Demant/+Team OMEXP - Article/ISAAR 2021/Data/experiments","no","mono","no","18","no","white","no","Next","400","no","768","30","0","30","C:/Users/elus/Documents/RecordingLSL_maybefinal/subject-11.csv","5","[<opensesame_plugins.lsl_start.liblsl.LSL_session object at 0x000001CE58434C88>]","Kafkaesque Koffka","3.2.7","1","0","2","1024","2","48000","-16","experiment","0","11","odd","NA","13804","13854","NA","5968","143753","140748","141750","142752","NA","NA","143753","NA","NA","13857","11804","139734","141249","142251","143253","139700","140734","139621","139700","14857","New experiment","yes","1024"
"<opensesame_plugins.lsl_start.liblsl.LSL_session object at 0x000001CE58434C88>","1","black","[0.0, 0.0]","legacy","0","uniform","31","0","0","0","0","31","31","31","31","0","NA","31","NA","0","0","0","31","31","31","31","31","NA","31","31","0","Thu Nov 18 08:12:19 2021","-8","The main experiment item","yes","experiment.osexp","C:/Users/elus/Demant/+Team OMEXP - Article/ISAAR 2021/Data/experiments","no","mono","no","18","no","white","no","Next","400","no","768","31","0","31","C:/Users/elus/Documents/RecordingLSL_maybefinal/subject-11.csv","5","[<opensesame_plugins.lsl_start.liblsl.LSL_session object at 0x000001CE58434C88>]","Kafkaesque Koffka","3.2.7","2","0","2","1024","2","48000","-16","experiment","0","11","odd","NA","13804","13854","NA","5968","147884","144878","145881","146883","NA","NA","147884","NA","NA","13857","11804","143866","145379","146382","147384","143839","144866","143761","143839","14857","New experiment","yes","1024"
"<opensesame_plugins.lsl_start.liblsl.LSL_session object at 0x000001CE58434C88>","1","black","[0.0, 0.0]","legacy","0","uniform","32","0","0","0","0","32","32","32","32","0","NA","32","NA","0","0","0","32","32","32","32","32","NA","32","32","0","Thu Nov 18 08:12:19 2021","-8","The main experiment item","yes","experiment.osexp","C:/Users/elus/Demant/+Team OMEXP - Article/ISAAR 2021/Data/experiments","no","mono","no","18","no","white","no","Next","400","no","768","32","0","32","C:/Users/elus/Documents/RecordingLSL_maybefinal/subject-11.csv","5","[<opensesame_plugins.lsl_start.liblsl.LSL_session object at 0x000001CE58434C88>]","Kafkaesque Koffka","3.2.7","3","0","2","1024","2","48000","-16","experiment","0","11","odd","NA","13804","13854","NA","5968","152054","149048","150051","151053","NA","NA","152054","NA","NA","13857","11804","148034","149550","150552","151554","148009","149034","147918","148009","14857","New experiment","yes","1024"
"<opensesame_plugins.lsl_start.liblsl.LSL_session object at 0x000001CE58434C88>","0","black","[0.0, 0.0]","legacy","0","uniform","33","0","0","0","0","33","33","33","33","0","NA","33","NA","0","0","0","33","33","33","33","33","NA","33","33","0","Thu Nov 18 08:12:19 2021","-8.5","The main experiment item","yes","experiment.osexp","C:/Users/elus/Demant/+Team OMEXP - Article/ISAAR 2021/Data/experiments","no","mono","no","18","no","white","no","Next","400","no","768","33","0","33","C:/Users/elus/Documents/RecordingLSL_maybefinal/subject-11.csv","5","[<opensesame_plugins.lsl_start.liblsl.LSL_session object at 0x000001CE58434C88>]","Kafkaesque Koffka","3.2.7","1","0","2","1024","2","48000","-16","experiment","0","11","odd","NA","13804","13854","NA","5968","156204","153198","154200","155203","NA","NA","156204","NA","NA","13857","11804","152180","153699","154701","155704","152146","153180","152063","152146","14857","New experiment","yes","1024"
"<opensesame_plugins.lsl_start.liblsl.LSL_session object at 0x000001CE58434C88>","1","black","[0.0, 0.0]","legacy","0","uniform","34","0","0","0","0","34","34","34","34","0","NA","34","NA","0","0","0","34","34","34","34","34","NA","34","34","0","Thu Nov 18 08:12:19 2021","-8","The main experiment item","yes","experiment.osexp","C:/Users/elus/Demant/+Team OMEXP - Article/ISAAR 2021/Data/experiments","no","mono","no","18","no","white","no","Next","400","no","768","34","0","34","C:/Users/elus/Documents/RecordingLSL_maybefinal/subject-11.csv","5","[<opensesame_plugins.lsl_start.liblsl.LSL_session object at 0x000001CE58434C88>]","Kafkaesque Koffka","3.2.7","2","0","2","1024","2","48000","-16","experiment","0","11","odd","NA","13804","13854","NA","5968","160345","157340","158342","159344","NA","NA","160345","NA","NA","13857","11804","156323","157841","158843","159845","156290","157323","156210","156290","14857","New experiment","yes","1024"
"<opensesame_plugins.lsl_start.liblsl.LSL_session object at 0x000001CE58434C88>","1","black","[0.0, 0.0]","legacy","0","uniform","35","0","0","0","0","35","35","35","35","0","NA","35","NA","0","0","0","35","35","35","35","35","NA","35","35","0","Thu Nov 18 08:12:19 2021","-8","The main experiment item","yes","experiment.osexp","C:/Users/elus/Demant/+Team OMEXP - Article/ISAAR 2021/Data/experiments","no","mono","no","18","no","white","no","Next","400","no","768","35","0","35","C:/Users/elus/Documents/RecordingLSL_maybefinal/subject-11.csv","5","[<opensesame_plugins.lsl_start.liblsl.LSL_session object at 0x000001CE58434C88>]","Kafkaesque Koffka","3.2.7","3","0","2","1024","2","48000","-16","experiment","0","11","odd","NA","13804","13854","NA","5968","164486","161479","162482","163484","NA","NA","164486","NA","NA","13857","11804","160461","161980","162983","163986","160430","161461","160350","160430","14857","New experiment","yes","1024"
"<opensesame_plugins.lsl_start.liblsl.LSL_session object at 0x000001CE58434C88>","1","black","[0.0, 0.0]","legacy","0","uniform","36","0","1","0","0","36","36","36","36","1","NA","36","NA","0","1","0","36","36","36","36","36","NA","36","36","1","Thu Nov 18 08:12:19 2021","-6","The main experiment item","yes","experiment.osexp","C:/Users/elus/Demant/+Team OMEXP - Article/ISAAR 2021/Data/experiments","no","mono","no","18","no","white","no","Next","1000","no","768","0","1","0","C:/Users/elus/Documents/RecordingLSL_maybefinal/subject-11.csv","5","[<opensesame_plugins.lsl_start.liblsl.LSL_session object at 0x000001CE58434C88>]","Kafkaesque Koffka","3.2.7","1","0","2","1024","2","48000","-16","experiment","0","11","odd","NA","13804","164671","NA","5968","169779","166770","167772","168777","NA","NA","169779","NA","NA","164672","11804","165750","167271","168275","169279","165728","166750","164555","165728","165672","New experiment","yes","1024"
"<opensesame_plugins.lsl_start.liblsl.LSL_session object at 0x000001CE58434C88>","1","black","[0.0, 0.0]","legacy","0","uniform","37","0","1","0","0","37","37","37","37","1","NA","37","NA","0","1","0","37","37","37","37","37","NA","37","37","1","Thu Nov 18 08:12:19 2021","-6","The main experiment item","yes","experiment.osexp","C:/Users/elus/Demant/+Team OMEXP - Article/ISAAR 2021/Data/experiments","no","mono","no","18","no","white","no","Next","1000","no","768","1","1","1","C:/Users/elus/Documents/RecordingLSL_maybefinal/subject-11.csv","5","[<opensesame_plugins.lsl_start.liblsl.LSL_session object at 0x000001CE58434C88>]","Kafkaesque Koffka","3.2.7","2","0","2","1024","2","48000","-16","experiment","0","11","odd","NA","13804","164671","NA","5968","173939","170930","171934","172937","NA","NA","173939","NA","NA","164672","11804","169912","171432","172435","173439","169877","170912","169781","169877","165672","New experiment","yes","1024"
"<opensesame_plugins.lsl_start.liblsl.LSL_session object at 0x000001CE58434C88>","0","black","[0.0, 0.0]","legacy","0","uniform","38","0","1","0","0","38","38","38","38","1","NA","38","NA","0","1","0","38","38","38","38","38","NA","38","38","1","Thu Nov 18 08:12:19 2021","-6","The main experiment item","yes","experiment.osexp","C:/Users/elus/Demant/+Team OMEXP - Article/ISAAR 2021/Data/experiments","no","mono","no","18","no","white","no","Next","1000","no","768","2","1","2","C:/Users/elus/Documents/RecordingLSL_maybefinal/subject-11.csv","5","[<opensesame_plugins.lsl_start.liblsl.LSL_session object at 0x000001CE58434C88>]","Kafkaesque Koffka","3.2.7","3","0","2","1024","2","48000","-16","experiment","0","11","odd","NA","13804","164671","NA","5968","178063","175058","176060","177062","NA","NA","178063","NA","NA","164672","11804","174049","175559","176561","177563","174016","175049","173941","174016","165672","New experiment","yes","1024"
"<opensesame_plugins.lsl_start.liblsl.LSL_session object at 0x000001CE58434C88>","1","black","[0.0, 0.0]","legacy","0","uniform","39","0","1","0","0","39","39","39","39","1","NA","39","NA","0","1","0","39","39","39","39","39","NA","39","39","1","Thu Nov 18 08:12:19 2021","-5","The main experiment item","yes","experiment.osexp","C:/Users/elus/Demant/+Team OMEXP - Article/ISAAR 2021/Data/experiments","no","mono","no","18","no","white","no","Next","1000","no","768","3","1","3","C:/Users/elus/Documents/RecordingLSL_maybefinal/subject-11.csv","5","[<opensesame_plugins.lsl_start.liblsl.LSL_session object at 0x000001CE58434C88>]","Kafkaesque Koffka","3.2.7","1","0","2","1024","2","48000","-16","experiment","0","11","odd","NA","13804","164671","NA","5968","182193","179188","180190","181192","NA","NA","182193","NA","NA","164672","11804","178173","179689","180691","181693","178145","179173","178065","178144","165672","New experiment","yes","1024"
"<opensesame_plugins.lsl_start.liblsl.LSL_session object at 0x000001CE58434C88>","1","black","[0.0, 0.0]","legacy","0","uniform","40","0","1","0","0","40","40","40","40","1","NA","40","NA","0","1","0","40","40","40","40","40","NA","40","40","1","Thu Nov 18 08:12:19 2021","-5","The main experiment item","yes","experiment.osexp","C:/Users/elus/Demant/+Team OMEXP - Article/ISAAR 2021/Data/experiments","no","mono","no","18","no","white","no","Next","1000","no","768","4","1","4","C:/Users/elus/Documents/RecordingLSL_maybefinal/subject-11.csv","5","[<opensesame_plugins.lsl_start.liblsl.LSL_session object at 0x000001CE58434C88>]","Kafkaesque Koffka","3.2.7","2","0","2","1024","2","48000","-16","experiment","0","11","odd","NA","13804","164671","NA","5968","186323","183318","184320","185322","NA","NA","186323","NA","NA","164672","11804","182303","183819","184821","185823","182273","183303","182195","182273","165672","New experiment","yes","1024"
"<opensesame_plugins.lsl_start.liblsl.LSL_session object at 0x000001CE58434C88>","1","black","[0.0, 0.0]","legacy","0","uniform","41","0","1","0","0","41","41","41","41","1","NA","41","NA","0","1","0","41","41","41","41","41","NA","41","41","1","Thu Nov 18 08:12:19 2021","-5","The main experiment item","yes","experiment.osexp","C:/Users/elus/Demant/+Team OMEXP - Article/ISAAR 2021/Data/experiments","no","mono","no","18","no","white","no","Next","1000","no","768","5","1","5","C:/Users/elus/Documents/RecordingLSL_maybefinal/subject-11.csv","5","[<opensesame_plugins.lsl_start.liblsl.LSL_session object at 0x000001CE58434C88>]","Kafkaesque Koffka","3.2.7","3","0","2","1024","2","48000","-16","experiment","0","11","odd","NA","13804","164671","NA","5968","190455","187451","188453","189454","NA","NA","190455","NA","NA","164672","11804","186440","187952","188953","189955","186408","187441","186331","186408","165672","New experiment","yes","1024"
"<opensesame_plugins.lsl_start.liblsl.LSL_session object at 0x000001CE58434C88>","1","black","[0.0, 0.0]","legacy","0","uniform","42","0","1","0","0","42","42","42","42","1","NA","42","NA","0","1","0","42","42","42","42","42","NA","42","42","1","Thu Nov 18 08:12:19 2021","-5.5","The main experiment item","yes","experiment.osexp","C:/Users/elus/Demant/+Team OMEXP - Article/ISAAR 2021/Data/experiments","no","mono","no","18","no","white","no","Next","1000","no","768","6","1","6","C:/Users/elus/Documents/RecordingLSL_maybefinal/subject-11.csv","5","[<opensesame_plugins.lsl_start.liblsl.LSL_session object at 0x000001CE58434C88>]","Kafkaesque Koffka","3.2.7","1","0","2","1024","2","48000","-16","experiment","0","11","odd","NA","13804","164671","NA","5968","194583","191578","192580","193582","NA","NA","194583","NA","NA","164672","11804","190569","192079","193081","194083","190535","191569","190456","190535","165672","New experiment","yes","1024"
"<opensesame_plugins.lsl_start.liblsl.LSL_session object at 0x000001CE58434C88>","1","black","[0.0, 0.0]","legacy","0","uniform","43","0","1","0","0","43","43","43","43","1","NA","43","NA","0","1","0","43","43","43","43","43","NA","43","43","1","Thu Nov 18 08:12:19 2021","-5.5","The main experiment item","yes","experiment.osexp","C:/Users/elus/Demant/+Team OMEXP - Article/ISAAR 2021/Data/experiments","no","mono","no","18","no","white","no","Next","1000","no","768","7","1","7","C:/Users/elus/Documents/RecordingLSL_maybefinal/subject-11.csv","5","[<opensesame_plugins.lsl_start.liblsl.LSL_session object at 0x000001CE58434C88>]","Kafkaesque Koffka","3.2.7","2","0","2","1024","2","48000","-16","experiment","0","11","odd","NA","13804","164671","NA","5968","198713","195708","196710","197712","NA","NA","198713","NA","NA","164672","11804","194692","196209","197211","198213","194661","195692","194585","194661","165672","New experiment","yes","1024"
"<opensesame_plugins.lsl_start.liblsl.LSL_session object at 0x000001CE58434C88>","1","black","[0.0, 0.0]","legacy","0","uniform","44","0","1","0","0","44","44","44","44","1","NA","44","NA","0","1","0","44","44","44","44","44","NA","44","44","1","Thu Nov 18 08:12:19 2021","-5.5","The main experiment item","yes","experiment.osexp","C:/Users/elus/Demant/+Team OMEXP - Article/ISAAR 2021/Data/experiments","no","mono","no","18","no","white","no","Next","1000","no","768","8","1","8","C:/Users/elus/Documents/RecordingLSL_maybefinal/subject-11.csv","5","[<opensesame_plugins.lsl_start.liblsl.LSL_session object at 0x000001CE58434C88>]","Kafkaesque Koffka","3.2.7","3","0","2","1024","2","48000","-16","experiment","0","11","odd","NA","13804","164671","NA","5968","202844","199839","200841","201843","NA","NA","202844","NA","NA","164672","11804","198824","200340","201342","202344","198794","199824","198715","198794","165672","New experiment","yes","1024"
"<opensesame_plugins.lsl_start.liblsl.LSL_session object at 0x000001CE58434C88>","0","black","[0.0, 0.0]","legacy","0","uniform","45","0","1","0","0","45","45","45","45","1","NA","45","NA","0","1","0","45","45","45","45","45","NA","45","45","1","Thu Nov 18 08:12:19 2021","-6","The main experiment item","yes","experiment.osexp","C:/Users/elus/Demant/+Team OMEXP - Article/ISAAR 2021/Data/experiments","no","mono","no","18","no","white","no","Next","1000","no","768","9","1","9","C:/Users/elus/Documents/RecordingLSL_maybefinal/subject-11.csv","5","[<opensesame_plugins.lsl_start.liblsl.LSL_session object at 0x000001CE58434C88>]","Kafkaesque Koffka","3.2.7","1","0","2","1024","2","48000","-16","experiment","0","11","odd","NA","13804","164671","NA","5968","206996","203990","204993","205995","NA","NA","206996","NA","NA","164672","11804","202981","204492","205494","206496","202925","203981","202846","202925","165672","New experiment","yes","1024"
"<opensesame_plugins.lsl_start.liblsl.LSL_session object at 0x000001CE58434C88>","1","black","[0.0, 0.0]","legacy","0","uniform","46","0","1","0","0","46","46","46","46","1","NA","46","NA","0","1","0","46","46","46","46","46","NA","46","46","1","Thu Nov 18 08:12:19 2021","-5.5","The main experiment item","yes","experiment.osexp","C:/Users/elus/Demant/+Team OMEXP - Article/ISAAR 2021/Data/experiments","no","mono","no","18","no","white","no","Next","1000","no","768","10","1","10","C:/Users/elus/Documents/RecordingLSL_maybefinal/subject-11.csv","5","[<opensesame_plugins.lsl_start.liblsl.LSL_session object at 0x000001CE58434C88>]","Kafkaesque Koffka","3.2.7","2","0","2","1024","2","48000","-16","experiment","0","11","odd","NA","13804","164671","NA","5968","211154","208147","209149","210150","NA","NA","211155","NA","NA","164672","11804","207135","208648","209650","210651","207110","208135","207004","207110","165672","New experiment","yes","1024"
"<opensesame_plugins.lsl_start.liblsl.LSL_session object at 0x000001CE58434C88>","1","black","[0.0, 0.0]","legacy","0","uniform","47","0","1","0","0","47","47","47","47","1","NA","47","NA","0","1","0","47","47","47","47","47","NA","47","47","1","Thu Nov 18 08:12:19 2021","-5.5","The main experiment item","yes","experiment.osexp","C:/Users/elus/Demant/+Team OMEXP - Article/ISAAR 2021/Data/experiments","no","mono","no","18","no","white","no","Next","1000","no","768","11","1","11","C:/Users/elus/Documents/RecordingLSL_maybefinal/subject-11.csv","5","[<opensesame_plugins.lsl_start.liblsl.LSL_session object at 0x000001CE58434C88>]","Kafkaesque Koffka","3.2.7","3","0","2","1024","2","48000","-16","experiment","0","11","odd","NA","13804","164671","NA","5968","215307","212298","213300","214302","NA","NA","215307","NA","NA","164672","11804","211281","212799","213801","214803","211249","212281","211159","211249","165672","New experiment","yes","1024"
"<opensesame_plugins.lsl_start.liblsl.LSL_session object at 0x000001CE58434C88>","1","black","[0.0, 0.0]","legacy","0","uniform","48","0","1","0","0","48","48","48","48","1","NA","48","NA","0","1","0","48","48","48","48","48","NA","48","48","1","Thu Nov 18 08:12:19 2021","-5.5","The main experiment item","yes","experiment.osexp","C:/Users/elus/Demant/+Team OMEXP - Article/ISAAR 2021/Data/experiments","no","mono","no","18","no","white","no","Next","1000","no","768","12","1","12","C:/Users/elus/Documents/RecordingLSL_maybefinal/subject-11.csv","5","[<opensesame_plugins.lsl_start.liblsl.LSL_session object at 0x000001CE58434C88>]","Kafkaesque Koffka","3.2.7","1","0","2","1024","2","48000","-16","experiment","0","11","odd","NA","13804","164671","NA","5968","219433","216428","217430","218432","NA","NA","219433","NA","NA","164672","11804","215418","216929","217931","218933","215388","216418","215309","215388","165672","New experiment","yes","1024"
"<opensesame_plugins.lsl_start.liblsl.LSL_session object at 0x000001CE58434C88>","1","black","[0.0, 0.0]","legacy","0","uniform","49","0","1","0","0","49","49","49","49","1","NA","49","NA","0","1","0","49","49","49","49","49","NA","49","49","1","Thu Nov 18 08:12:19 2021","-6","The main experiment item","yes","experiment.osexp","C:/Users/elus/Demant/+Team OMEXP - Article/ISAAR 2021/Data/experiments","no","mono","no","18","no","white","no","Next","1000","no","768","13","1","13","C:/Users/elus/Documents/RecordingLSL_maybefinal/subject-11.csv","5","[<opensesame_plugins.lsl_start.liblsl.LSL_session object at 0x000001CE58434C88>]","Kafkaesque Koffka","3.2.7","2","0","2","1024","2","48000","-16","experiment","0","11","odd","NA","13804","164671","NA","5968","223564","220559","221561","222563","NA","NA","223564","NA","NA","164672","11804","219547","221060","222062","223064","219515","220547","219435","219515","165672","New experiment","yes","1024"
"<opensesame_plugins.lsl_start.liblsl.LSL_session object at 0x000001CE58434C88>","1","black","[0.0, 0.0]","legacy","0","uniform","50","0","1","0","0","50","50","50","50","1","NA","50","NA","0","1","0","50","50","50","50","50","NA","50","50","1","Thu Nov 18 08:12:19 2021","-6","The main experiment item","yes","experiment.osexp","C:/Users/elus/Demant/+Team OMEXP - Article/ISAAR 2021/Data/experiments","no","mono","no","18","no","white","no","Next","1000","no","768","14","1","14","C:/Users/elus/Documents/RecordingLSL_maybefinal/subject-11.csv","5","[<opensesame_plugins.lsl_start.liblsl.LSL_session object at 0x000001CE58434C88>]","Kafkaesque Koffka","3.2.7","3","0","2","1024","2","48000","-16","experiment","0","11","odd","NA","13804","164671","NA","5968","227693","224688","225690","226692","NA","NA","227693","NA","NA","164672","11804","223680","225189","226191","227193","223644","224680","223566","223644","165672","New experiment","yes","1024"
"<opensesame_plugins.lsl_start.liblsl.LSL_session object at 0x000001CE58434C88>","1","black","[0.0, 0.0]","legacy","0","uniform","51","0","1","0","0","51","51","51","51","1","NA","51","NA","0","1","0","51","51","51","51","51","NA","51","51","1","Thu Nov 18 08:12:19 2021","-6","The main experiment item","yes","experiment.osexp","C:/Users/elus/Demant/+Team OMEXP - Article/ISAAR 2021/Data/experiments","no","mono","no","18","no","white","no","Next","1000","no","768","15","1","15","C:/Users/elus/Documents/RecordingLSL_maybefinal/subject-11.csv","5","[<opensesame_plugins.lsl_start.liblsl.LSL_session object at 0x000001CE58434C88>]","Kafkaesque Koffka","3.2.7","1","0","2","1024","2","48000","-16","experiment","0","11","odd","NA","13804","164671","NA","5968","231843","228838","229840","230842","NA","NA","231843","NA","NA","164672","11804","227826","229339","230341","231343","227792","228826","227697","227792","165672","New experiment","yes","1024"
"<opensesame_plugins.lsl_start.liblsl.LSL_session object at 0x000001CE58434C88>","1","black","[0.0, 0.0]","legacy","0","uniform","52","0","1","0","0","52","52","52","52","1","NA","52","NA","0","1","0","52","52","52","52","52","NA","52","52","1","Thu Nov 18 08:12:19 2021","-6.5","The main experiment item","yes","experiment.osexp","C:/Users/elus/Demant/+Team OMEXP - Article/ISAAR 2021/Data/experiments","no","mono","no","18","no","white","no","Next","1000","no","768","16","1","16","C:/Users/elus/Documents/RecordingLSL_maybefinal/subject-11.csv","5","[<opensesame_plugins.lsl_start.liblsl.LSL_session object at 0x000001CE58434C88>]","Kafkaesque Koffka","3.2.7","2","0","2","1024","2","48000","-16","experiment","0","11","odd","NA","13804","164671","NA","5968","235975","232970","233972","234974","NA","NA","235975","NA","NA","164672","11804","231955","233471","234473","235475","231922","232955","231845","231922","165672","New experiment","yes","1024"
"<opensesame_plugins.lsl_start.liblsl.LSL_session object at 0x000001CE58434C88>","1","black","[0.0, 0.0]","legacy","0","uniform","53","0","1","0","0","53","53","53","53","1","NA","53","NA","0","1","0","53","53","53","53","53","NA","53","53","1","Thu Nov 18 08:12:19 2021","-6.5","The main experiment item","yes","experiment.osexp","C:/Users/elus/Demant/+Team OMEXP - Article/ISAAR 2021/Data/experiments","no","mono","no","18","no","white","no","Next","1000","no","768","17","1","17","C:/Users/elus/Documents/RecordingLSL_maybefinal/subject-11.csv","5","[<opensesame_plugins.lsl_start.liblsl.LSL_session object at 0x000001CE58434C88>]","Kafkaesque Koffka","3.2.7","3","0","2","1024","2","48000","-16","experiment","0","11","odd","NA","13804","164671","NA","5968","240102","237098","238099","239101","NA","NA","240102","NA","NA","164672","11804","236090","237599","238600","239602","236057","237090","235977","236057","165672","New experiment","yes","1024"
"<opensesame_plugins.lsl_start.liblsl.LSL_session object at 0x000001CE58434C88>","1","black","[0.0, 0.0]","legacy","0","uniform","54","0","1","0","0","54","54","54","54","1","NA","54","NA","0","1","0","54","54","54","54","54","NA","54","54","1","Thu Nov 18 08:12:19 2021","-6.5","The main experiment item","yes","experiment.osexp","C:/Users/elus/Demant/+Team OMEXP - Article/ISAAR 2021/Data/experiments","no","mono","no","18","no","white","no","Next","1000","no","768","18","1","18","C:/Users/elus/Documents/RecordingLSL_maybefinal/subject-11.csv","5","[<opensesame_plugins.lsl_start.liblsl.LSL_session object at 0x000001CE58434C88>]","Kafkaesque Koffka","3.2.7","1","0","2","1024","2","48000","-16","experiment","0","11","odd","NA","13804","164671","NA","5968","244234","241229","242231","243233","NA","NA","244234","NA","NA","164672","11804","240211","241730","242732","243734","240184","241211","240106","240184","165672","New experiment","yes","1024"
"<opensesame_plugins.lsl_start.liblsl.LSL_session object at 0x000001CE58434C88>","1","black","[0.0, 0.0]","legacy","0","uniform","55","0","1","0","0","55","55","55","55","1","NA","55","NA","0","1","0","55","55","55","55","55","NA","55","55","1","Thu Nov 18 08:12:19 2021","-7","The main experiment item","yes","experiment.osexp","C:/Users/elus/Demant/+Team OMEXP - Article/ISAAR 2021/Data/experiments","no","mono","no","18","no","white","no","Next","1000","no","768","19","1","19","C:/Users/elus/Documents/RecordingLSL_maybefinal/subject-11.csv","5","[<opensesame_plugins.lsl_start.liblsl.LSL_session object at 0x000001CE58434C88>]","Kafkaesque Koffka","3.2.7","2","0","2","1024","2","48000","-16","experiment","0","11","odd","NA","13804","164671","NA","5968","248373","245368","246370","247372","NA","NA","248373","NA","NA","164672","11804","244350","245869","246871","247873","244320","245350","244242","244320","165672","New experiment","yes","1024"
"<opensesame_plugins.lsl_start.liblsl.LSL_session object at 0x000001CE58434C88>","0","black","[0.0, 0.0]","legacy","0","uniform","56","0","1","0","0","56","56","56","56","1","NA","56","NA","0","1","0","56","56","56","56","56","NA","56","56","1","Thu Nov 18 08:12:19 2021","-7","The main experiment item","yes","experiment.osexp","C:/Users/elus/Demant/+Team OMEXP - Article/ISAAR 2021/Data/experiments","no","mono","no","18","no","white","no","Next","1000","no","768","20","1","20","C:/Users/elus/Documents/RecordingLSL_maybefinal/subject-11.csv","5","[<opensesame_plugins.lsl_start.liblsl.LSL_session object at 0x000001CE58434C88>]","Kafkaesque Koffka","3.2.7","3","0","2","1024","2","48000","-16","experiment","0","11","odd","NA","13804","164671","NA","5968","252504","249498","250501","251503","NA","NA","252504","NA","NA","164672","11804","248486","250000","251002","252004","248453","249486","248375","248453","165672","New experiment","yes","1024"
"<opensesame_plugins.lsl_start.liblsl.LSL_session object at 0x000001CE58434C88>","1","black","[0.0, 0.0]","legacy","0","uniform","57","0","1","0","0","57","57","57","57","1","NA","57","NA","0","1","0","57","57","57","57","57","NA","57","57","1","Thu Nov 18 08:12:19 2021","-6.5","The main experiment item","yes","experiment.osexp","C:/Users/elus/Demant/+Team OMEXP - Article/ISAAR 2021/Data/experiments","no","mono","no","18","no","white","no","Next","1000","no","768","21","1","21","C:/Users/elus/Documents/RecordingLSL_maybefinal/subject-11.csv","5","[<opensesame_plugins.lsl_start.liblsl.LSL_session object at 0x000001CE58434C88>]","Kafkaesque Koffka","3.2.7","1","0","2","1024","2","48000","-16","experiment","0","11","odd","NA","13804","164671","NA","5968","256633","253628","254630","255632","NA","NA","256633","NA","NA","164672","11804","252613","254129","255131","256133","252583","253613","252506","252583","165672","New experiment","yes","1024"
"<opensesame_plugins.lsl_start.liblsl.LSL_session object at 0x000001CE58434C88>","1","black","[0.0, 0.0]","legacy","0","uniform","58","0","1","0","0","58","58","58","58","1","NA","58","NA","0","1","0","58","58","58","58","58","NA","58","58","1","Thu Nov 18 08:12:19 2021","-6.5","The main experiment item","yes","experiment.osexp","C:/Users/elus/Demant/+Team OMEXP - Article/ISAAR 2021/Data/experiments","no","mono","no","18","no","white","no","Next","1000","no","768","22","1","22","C:/Users/elus/Documents/RecordingLSL_maybefinal/subject-11.csv","5","[<opensesame_plugins.lsl_start.liblsl.LSL_session object at 0x000001CE58434C88>]","Kafkaesque Koffka","3.2.7","2","0","2","1024","2","48000","-16","experiment","0","11","odd","NA","13804","164671","NA","5968","260764","257758","258761","259763","NA","NA","260764","NA","NA","164672","11804","256745","258260","259262","260264","256714","257745","256635","256714","165672","New experiment","yes","1024"
"<opensesame_plugins.lsl_start.liblsl.LSL_session object at 0x000001CE58434C88>","1","black","[0.0, 0.0]","legacy","0","uniform","59","0","1","0","0","59","59","59","59","1","NA","59","NA","0","1","0","59","59","59","59","59","NA","59","59","1","Thu Nov 18 08:12:19 2021","-6.5","The main experiment item","yes","experiment.osexp","C:/Users/elus/Demant/+Team OMEXP - Article/ISAAR 2021/Data/experiments","no","mono","no","18","no","white","no","Next","1000","no","768","23","1","23","C:/Users/elus/Documents/RecordingLSL_maybefinal/subject-11.csv","5","[<opensesame_plugins.lsl_start.liblsl.LSL_session object at 0x000001CE58434C88>]","Kafkaesque Koffka","3.2.7","3","0","2","1024","2","48000","-16","experiment","0","11","odd","NA","13804","164671","NA","5968","264894","261888","262890","263892","NA","NA","264894","NA","NA","164672","11804","260871","262389","263391","264393","260842","261871","260766","260842","165672","New experiment","yes","1024"
"<opensesame_plugins.lsl_start.liblsl.LSL_session object at 0x000001CE58434C88>","1","black","[0.0, 0.0]","legacy","0","uniform","60","0","1","0","0","60","60","60","60","1","NA","60","NA","0","1","0","60","60","60","60","60","NA","60","60","1","Thu Nov 18 08:12:19 2021","-7","The main experiment item","yes","experiment.osexp","C:/Users/elus/Demant/+Team OMEXP - Article/ISAAR 2021/Data/experiments","no","mono","no","18","no","white","no","Next","1000","no","768","24","1","24","C:/Users/elus/Documents/RecordingLSL_maybefinal/subject-11.csv","5","[<opensesame_plugins.lsl_start.liblsl.LSL_session object at 0x000001CE58434C88>]","Kafkaesque Koffka","3.2.7","1","0","2","1024","2","48000","-16","experiment","0","11","odd","NA","13804","164671","NA","5968","269024","266019","267021","268023","NA","NA","269024","NA","NA","164672","11804","265004","266520","267522","268524","264974","266004","264896","264974","165672","New experiment","yes","1024"
"<opensesame_plugins.lsl_start.liblsl.LSL_session object at 0x000001CE58434C88>","1","black","[0.0, 0.0]","legacy","0","uniform","61","0","1","0","0","61","61","61","61","1","NA","61","NA","0","1","0","61","61","61","61","61","NA","61","61","1","Thu Nov 18 08:12:19 2021","-7","The main experiment item","yes","experiment.osexp","C:/Users/elus/Demant/+Team OMEXP - Article/ISAAR 2021/Data/experiments","no","mono","no","18","no","white","no","Next","1000","no","768","25","1","25","C:/Users/elus/Documents/RecordingLSL_maybefinal/subject-11.csv","5","[<opensesame_plugins.lsl_start.liblsl.LSL_session object at 0x000001CE58434C88>]","Kafkaesque Koffka","3.2.7","2","0","2","1024","2","48000","-16","experiment","0","11","odd","NA","13804","164671","NA","5968","273153","270148","271150","272152","NA","NA","273153","NA","NA","164672","11804","269134","270649","271651","272653","269105","270134","269026","269105","165672","New experiment","yes","1024"
"<opensesame_plugins.lsl_start.liblsl.LSL_session object at 0x000001CE58434C88>","1","black","[0.0, 0.0]","legacy","0","uniform","62","0","1","0","0","62","62","62","62","1","NA","62","NA","0","1","0","62","62","62","62","62","NA","62","62","1","Thu Nov 18 08:12:19 2021","-7","The main experiment item","yes","experiment.osexp","C:/Users/elus/Demant/+Team OMEXP - Article/ISAAR 2021/Data/experiments","no","mono","no","18","no","white","no","Next","1000","no","768","26","1","26","C:/Users/elus/Documents/RecordingLSL_maybefinal/subject-11.csv","5","[<opensesame_plugins.lsl_start.liblsl.LSL_session object at 0x000001CE58434C88>]","Kafkaesque Koffka","3.2.7","3","0","2","1024","2","48000","-16","experiment","0","11","odd","NA","13804","164671","NA","5968","277284","274279","275281","276283","NA","NA","277284","NA","NA","164672","11804","273262","274780","275782","276784","273233","274262","273155","273232","165672","New experiment","yes","1024"
"<opensesame_plugins.lsl_start.liblsl.LSL_session object at 0x000001CE58434C88>","0","black","[0.0, 0.0]","legacy","0","uniform","63","0","1","0","0","63","63","63","63","1","NA","63","NA","0","1","0","63","63","63","63","63","NA","63","63","1","Thu Nov 18 08:12:19 2021","-7.5","The main experiment item","yes","experiment.osexp","C:/Users/elus/Demant/+Team OMEXP - Article/ISAAR 2021/Data/experiments","no","mono","no","18","no","white","no","Next","1000","no","768","27","1","27","C:/Users/elus/Documents/RecordingLSL_maybefinal/subject-11.csv","5","[<opensesame_plugins.lsl_start.liblsl.LSL_session object at 0x000001CE58434C88>]","Kafkaesque Koffka","3.2.7","1","0","2","1024","2","48000","-16","experiment","0","11","odd","NA","13804","164671","NA","5968","281414","278409","279411","280413","NA","NA","281414","NA","NA","164672","11804","277399","278910","279912","280914","277366","278399","277287","277366","165672","New experiment","yes","1024"
"<opensesame_plugins.lsl_start.liblsl.LSL_session object at 0x000001CE58434C88>","1","black","[0.0, 0.0]","legacy","0","uniform","64","0","1","0","0","64","64","64","64","1","NA","64","NA","0","1","0","64","64","64","64","64","NA","64","64","1","Thu Nov 18 08:12:19 2021","-7","The main experiment item","yes","experiment.osexp","C:/Users/elus/Demant/+Team OMEXP - Article/ISAAR 2021/Data/experiments","no","mono","no","18","no","white","no","Next","1000","no","768","28","1","28","C:/Users/elus/Documents/RecordingLSL_maybefinal/subject-11.csv","5","[<opensesame_plugins.lsl_start.liblsl.LSL_session object at 0x000001CE58434C88>]","Kafkaesque Koffka","3.2.7","2","0","2","1024","2","48000","-16","experiment","0","11","odd","NA","13804","164671","NA","5968","285542","282538","283539","284541","NA","NA","285542","NA","NA","164672","11804","281524","283039","284040","285042","281495","282524","281416","281495","165672","New experiment","yes","1024"
"<opensesame_plugins.lsl_start.liblsl.LSL_session object at 0x000001CE58434C88>","1","black","[0.0, 0.0]","legacy","0","uniform","65","0","1","0","0","65","65","65","65","1","NA","65","NA","0","1","0","65","65","65","65","65","NA","65","65","1","Thu Nov 18 08:12:19 2021","-7","The main experiment item","yes","experiment.osexp","C:/Users/elus/Demant/+Team OMEXP - Article/ISAAR 2021/Data/experiments","no","mono","no","18","no","white","no","Next","1000","no","768","29","1","29","C:/Users/elus/Documents/RecordingLSL_maybefinal/subject-11.csv","5","[<opensesame_plugins.lsl_start.liblsl.LSL_session object at 0x000001CE58434C88>]","Kafkaesque Koffka","3.2.7","3","0","2","1024","2","48000","-16","experiment","0","11","odd","NA","13804","164671","NA","5968","289665","286660","287662","288664","NA","NA","289665","NA","NA","164672","11804","285650","287161","288163","289165","285620","286651","285544","285620","165672","New experiment","yes","1024"
"<opensesame_plugins.lsl_start.liblsl.LSL_session object at 0x000001CE58434C88>","1","black","[0.0, 0.0]","legacy","0","uniform","66","0","1","0","0","66","66","66","66","1","NA","66","NA","0","1","0","66","66","66","66","66","NA","66","66","1","Thu Nov 18 08:12:19 2021","-7","The main experiment item","yes","experiment.osexp","C:/Users/elus/Demant/+Team OMEXP - Article/ISAAR 2021/Data/experiments","no","mono","no","18","no","white","no","Next","1000","no","768","30","1","30","C:/Users/elus/Documents/RecordingLSL_maybefinal/subject-11.csv","5","[<opensesame_plugins.lsl_start.liblsl.LSL_session object at 0x000001CE58434C88>]","Kafkaesque Koffka","3.2.7","1","0","2","1024","2","48000","-16","experiment","0","11","odd","NA","13804","164671","NA","5968","293793","290788","291790","292792","NA","NA","293793","NA","NA","164672","11804","289775","291289","292291","293293","289744","290775","289667","289744","165672","New experiment","yes","1024"
"<opensesame_plugins.lsl_start.liblsl.LSL_session object at 0x000001CE58434C88>","1","black","[0.0, 0.0]","legacy","0","uniform","67","0","1","0","0","67","67","67","67","1","NA","67","NA","0","1","0","67","67","67","67","67","NA","67","67","1","Thu Nov 18 08:12:19 2021","-7.5","The main experiment item","yes","experiment.osexp","C:/Users/elus/Demant/+Team OMEXP - Article/ISAAR 2021/Data/experiments","no","mono","no","18","no","white","no","Next","1000","no","768","31","1","31","C:/Users/elus/Documents/RecordingLSL_maybefinal/subject-11.csv","5","[<opensesame_plugins.lsl_start.liblsl.LSL_session object at 0x000001CE58434C88>]","Kafkaesque Koffka","3.2.7","2","0","2","1024","2","48000","-16","experiment","0","11","odd","NA","13804","164671","NA","5968","297923","294918","295920","296922","NA","NA","297923","NA","NA","164672","11804","293902","295419","296421","297423","293873","294902","293795","293873","165672","New experiment","yes","1024"
"<opensesame_plugins.lsl_start.liblsl.LSL_session object at 0x000001CE58434C88>","1","black","[0.0, 0.0]","legacy","0","uniform","68","0","1","0","0","68","68","68","68","1","NA","68","NA","0","1","0","68","68","68","68","68","NA","68","68","1","Thu Nov 18 08:12:19 2021","-7.5","The main experiment item","yes","experiment.osexp","C:/Users/elus/Demant/+Team OMEXP - Article/ISAAR 2021/Data/experiments","no","mono","no","18","no","white","no","Next","1000","no","768","32","1","32","C:/Users/elus/Documents/RecordingLSL_maybefinal/subject-11.csv","5","[<opensesame_plugins.lsl_start.liblsl.LSL_session object at 0x000001CE58434C88>]","Kafkaesque Koffka","3.2.7","3","0","2","1024","2","48000","-16","experiment","0","11","odd","NA","13804","164671","NA","5968","302053","299048","300050","301052","NA","NA","302053","NA","NA","164672","11804","298039","299549","300551","301553","298006","299039","297925","298006","165672","New experiment","yes","1024"
"<opensesame_plugins.lsl_start.liblsl.LSL_session object at 0x000001CE58434C88>","1","black","[0.0, 0.0]","legacy","0","uniform","69","0","1","0","0","69","69","69","69","1","NA","69","NA","0","1","0","69","69","69","69","69","NA","69","69","1","Thu Nov 18 08:12:19 2021","-7.5","The main experiment item","yes","experiment.osexp","C:/Users/elus/Demant/+Team OMEXP - Article/ISAAR 2021/Data/experiments","no","mono","no","18","no","white","no","Next","1000","no","768","33","1","33","C:/Users/elus/Documents/RecordingLSL_maybefinal/subject-11.csv","5","[<opensesame_plugins.lsl_start.liblsl.LSL_session object at 0x000001CE58434C88>]","Kafkaesque Koffka","3.2.7","1","0","2","1024","2","48000","-16","experiment","0","11","odd","NA","13804","164671","NA","5968","306220","303212","304217","305219","NA","NA","306220","NA","NA","164672","11804","302194","303713","304718","305720","302136","303194","302055","302136","165672","New experiment","yes","1024"
"<opensesame_plugins.lsl_start.liblsl.LSL_session object at 0x000001CE58434C88>","1","black","[0.0, 0.0]","legacy","0","uniform","70","0","1","0","0","70","70","70","70","1","NA","70","NA","0","1","0","70","70","70","70","70","NA","70","70","1","Thu Nov 18 08:12:19 2021","-8","The main experiment item","yes","experiment.osexp","C:/Users/elus/Demant/+Team OMEXP - Article/ISAAR 2021/Data/experiments","no","mono","no","18","no","white","no","Next","1000","no","768","34","1","34","C:/Users/elus/Documents/RecordingLSL_maybefinal/subject-11.csv","5","[<opensesame_plugins.lsl_start.liblsl.LSL_session object at 0x000001CE58434C88>]","Kafkaesque Koffka","3.2.7","2","0","2","1024","2","48000","-16","experiment","0","11","odd","NA","13804","164671","NA","5968","310378","307369","308371","309377","NA","NA","310378","NA","NA","164672","11804","306355","307870","308872","309878","306327","307355","306221","306327","165672","New experiment","yes","1024"
"<opensesame_plugins.lsl_start.liblsl.LSL_session object at 0x000001CE58434C88>","0","black","[0.0, 0.0]","legacy","0","uniform","71","0","1","0","0","71","71","71","71","1","NA","71","NA","0","1","0","71","71","71","71","71","NA","71","71","1","Thu Nov 18 08:12:19 2021","-8","The main experiment item","yes","experiment.osexp","C:/Users/elus/Demant/+Team OMEXP - Article/ISAAR 2021/Data/experiments","no","mono","no","18","no","white","no","Next","1000","no","768","35","1","35","C:/Users/elus/Documents/RecordingLSL_maybefinal/subject-11.csv","5","[<opensesame_plugins.lsl_start.liblsl.LSL_session object at 0x000001CE58434C88>]","Kafkaesque Koffka","3.2.7","3","0","2","1024","2","48000","-16","experiment","0","11","odd","NA","13804","164671","NA","5968","314523","311518","312520","313522","NA","NA","314523","NA","NA","164672","11804","310508","312019","313021","314023","310477","311508","310385","310477","165672","New experiment","yes","1024"
"<opensesame_plugins.lsl_start.liblsl.LSL_session object at 0x000001CE58434C88>","1","black","[0.0, 0.0]","legacy","0","uniform","72","0","2","0","0","72","72","72","72","2","NA","72","NA","0","2","0","72","72","72","72","72","NA","72","72","2","Thu Nov 18 08:12:19 2021","-6","The main experiment item","yes","experiment.osexp","C:/Users/elus/Demant/+Team OMEXP - Article/ISAAR 2021/Data/experiments","no","mono","no","18","no","white","no","Next","400","no","768","0","2","0","C:/Users/elus/Documents/RecordingLSL_maybefinal/subject-11.csv","10","[<opensesame_plugins.lsl_start.liblsl.LSL_session object at 0x000001CE58434C88>]","Kafkaesque Koffka","3.2.7","1","0","2","1024","2","48000","-16","experiment","0","11","odd","NA","13804","314632","NA","5968","319714","316708","317711","318713","NA","NA","319714","NA","NA","314634","11804","315698","317210","318212","319214","315677","316698","314536","315677","315634","New experiment","yes","1024"
"<opensesame_plugins.lsl_start.liblsl.LSL_session object at 0x000001CE58434C88>","1","black","[0.0, 0.0]","legacy","0","uniform","73","0","2","0","0","73","73","73","73","2","NA","73","NA","0","2","0","73","73","73","73","73","NA","73","73","2","Thu Nov 18 08:12:19 2021","-6","The main experiment item","yes","experiment.osexp","C:/Users/elus/Demant/+Team OMEXP - Article/ISAAR 2021/Data/experiments","no","mono","no","18","no","white","no","Next","400","no","768","1","2","1","C:/Users/elus/Documents/RecordingLSL_maybefinal/subject-11.csv","10","[<opensesame_plugins.lsl_start.liblsl.LSL_session object at 0x000001CE58434C88>]","Kafkaesque Koffka","3.2.7","2","0","2","1024","2","48000","-16","experiment","0","11","odd","NA","13804","314632","NA","5968","323843","320838","321840","322842","NA","NA","323843","NA","NA","314634","11804","319826","321339","322341","323343","319794","320826","319716","319794","315634","New experiment","yes","1024"
"<opensesame_plugins.lsl_start.liblsl.LSL_session object at 0x000001CE58434C88>","1","black","[0.0, 0.0]","legacy","0","uniform","74","0","2","0","0","74","74","74","74","2","NA","74","NA","0","2","0","74","74","74","74","74","NA","74","74","2","Thu Nov 18 08:12:19 2021","-6","The main experiment item","yes","experiment.osexp","C:/Users/elus/Demant/+Team OMEXP - Article/ISAAR 2021/Data/experiments","no","mono","no","18","no","white","no","Next","400","no","768","2","2","2","C:/Users/elus/Documents/RecordingLSL_maybefinal/subject-11.csv","10","[<opensesame_plugins.lsl_start.liblsl.LSL_session object at 0x000001CE58434C88>]","Kafkaesque Koffka","3.2.7","3","0","2","1024","2","48000","-16","experiment","0","11","odd","NA","13804","314632","NA","5968","327974","324969","325971","326973","NA","NA","327974","NA","NA","314634","11804","323953","325470","326472","327474","323924","324953","323845","323924","315634","New experiment","yes","1024"
"<opensesame_plugins.lsl_start.liblsl.LSL_session object at 0x000001CE58434C88>","1","black","[0.0, 0.0]","legacy","0","uniform","75","0","2","0","0","75","75","75","75","2","NA","75","NA","0","2","0","75","75","75","75","75","NA","75","75","2","Thu Nov 18 08:12:19 2021","-7","The main experiment item","yes","experiment.osexp","C:/Users/elus/Demant/+Team OMEXP - Article/ISAAR 2021/Data/experiments","no","mono","no","18","no","white","no","Next","400","no","768","3","2","3","C:/Users/elus/Documents/RecordingLSL_maybefinal/subject-11.csv","10","[<opensesame_plugins.lsl_start.liblsl.LSL_session object at 0x000001CE58434C88>]","Kafkaesque Koffka","3.2.7","1","0","2","1024","2","48000","-16","experiment","0","11","odd","NA","13804","314632","NA","5968","332103","329098","330100","331102","NA","NA","332103","NA","NA","314634","11804","328088","329599","330601","331603","328060","329088","327980","328060","315634","New experiment","yes","1024"
"<opensesame_plugins.lsl_start.liblsl.LSL_session object at 0x000001CE58434C88>","0","black","[0.0, 0.0]","legacy","0","uniform","76","0","2","0","0","76","76","76","76","2","NA","76","NA","0","2","0","76","76","76","76","76","NA","76","76","2","Thu Nov 18 08:12:19 2021","-7","The main experiment item","yes","experiment.osexp","C:/Users/elus/Demant/+Team OMEXP - Article/ISAAR 2021/Data/experiments","no","mono","no","18","no","white","no","Next","400","no","768","4","2","4","C:/Users/elus/Documents/RecordingLSL_maybefinal/subject-11.csv","10","[<opensesame_plugins.lsl_start.liblsl.LSL_session object at 0x000001CE58434C88>]","Kafkaesque Koffka","3.2.7","2","0","2","1024","2","48000","-16","experiment","0","11","odd","NA","13804","314632","NA","5968","336233","333228","334231","335232","NA","NA","336233","NA","NA","314634","11804","332215","333729","334731","335733","332185","333215","332105","332185","315634","New experiment","yes","1024"
"<opensesame_plugins.lsl_start.liblsl.LSL_session object at 0x000001CE58434C88>","1","black","[0.0, 0.0]","legacy","0","uniform","77","0","2","0","0","77","77","77","77","2","NA","77","NA","0","2","0","77","77","77","77","77","NA","77","77","2","Thu Nov 18 08:12:19 2021","-6.5","The main experiment item","yes","experiment.osexp","C:/Users/elus/Demant/+Team OMEXP - Article/ISAAR 2021/Data/experiments","no","mono","no","18","no","white","no","Next","400","no","768","5","2","5","C:/Users/elus/Documents/RecordingLSL_maybefinal/subject-11.csv","10","[<opensesame_plugins.lsl_start.liblsl.LSL_session object at 0x000001CE58434C88>]","Kafkaesque Koffka","3.2.7","3","0","2","1024","2","48000","-16","experiment","0","11","odd","NA","13804","314632","NA","5968","340365","337358","338361","339364","NA","NA","340365","NA","NA","314634","11804","336342","337859","338863","339865","336314","337342","336235","336314","315634","New experiment","yes","1024"
"<opensesame_plugins.lsl_start.liblsl.LSL_session object at 0x000001CE58434C88>","1","black","[0.0, 0.0]","legacy","0","uniform","78","0","2","0","0","78","78","78","78","2","NA","78","NA","0","2","0","78","78","78","78","78","NA","78","78","2","Thu Nov 18 08:12:19 2021","-6.5","The main experiment item","yes","experiment.osexp","C:/Users/elus/Demant/+Team OMEXP - Article/ISAAR 2021/Data/experiments","no","mono","no","18","no","white","no","Next","400","no","768","6","2","6","C:/Users/elus/Documents/RecordingLSL_maybefinal/subject-11.csv","10","[<opensesame_plugins.lsl_start.liblsl.LSL_session object at 0x000001CE58434C88>]","Kafkaesque Koffka","3.2.7","1","0","2","1024","2","48000","-16","experiment","0","11","odd","NA","13804","314632","NA","5968","344493","341488","342490","343492","NA","NA","344493","NA","NA","314634","11804","340477","341989","342991","343993","340447","341477","340367","340447","315634","New experiment","yes","1024"
"<opensesame_plugins.lsl_start.liblsl.LSL_session object at 0x000001CE58434C88>","0","black","[0.0, 0.0]","legacy","0","uniform","79","0","2","0","0","79","79","79","79","2","NA","79","NA","0","2","0","79","79","79","79","79","NA","79","79","2","Thu Nov 18 08:12:19 2021","-6.5","The main experiment item","yes","experiment.osexp","C:/Users/elus/Demant/+Team OMEXP - Article/ISAAR 2021/Data/experiments","no","mono","no","18","no","white","no","Next","400","no","768","7","2","7","C:/Users/elus/Documents/RecordingLSL_maybefinal/subject-11.csv","10","[<opensesame_plugins.lsl_start.liblsl.LSL_session object at 0x000001CE58434C88>]","Kafkaesque Koffka","3.2.7","2","0","2","1024","2","48000","-16","experiment","0","11","odd","NA","13804","314632","NA","5968","348625","345620","346622","347624","NA","NA","348625","NA","NA","314634","11804","344608","346121","347123","348125","344573","345608","344495","344573","315634","New experiment","yes","1024"
"<opensesame_plugins.lsl_start.liblsl.LSL_session object at 0x000001CE58434C88>","1","black","[0.0, 0.0]","legacy","0","uniform","80","0","2","0","0","80","80","80","80","2","NA","80","NA","0","2","0","80","80","80","80","80","NA","80","80","2","Thu Nov 18 08:12:19 2021","-6","The main experiment item","yes","experiment.osexp","C:/Users/elus/Demant/+Team OMEXP - Article/ISAAR 2021/Data/experiments","no","mono","no","18","no","white","no","Next","400","no","768","8","2","8","C:/Users/elus/Documents/RecordingLSL_maybefinal/subject-11.csv","10","[<opensesame_plugins.lsl_start.liblsl.LSL_session object at 0x000001CE58434C88>]","Kafkaesque Koffka","3.2.7","3","0","2","1024","2","48000","-16","experiment","0","11","odd","NA","13804","314632","NA","5968","352753","349748","350750","351752","NA","NA","352753","NA","NA","314634","11804","348735","350249","351251","352253","348706","349735","348627","348706","315634","New experiment","yes","1024"
"<opensesame_plugins.lsl_start.liblsl.LSL_session object at 0x000001CE58434C88>","1","black","[0.0, 0.0]","legacy","0","uniform","81","0","2","0","0","81","81","81","81","2","NA","81","NA","0","2","0","81","81","81","81","81","NA","81","81","2","Thu Nov 18 08:12:19 2021","-6","The main experiment item","yes","experiment.osexp","C:/Users/elus/Demant/+Team OMEXP - Article/ISAAR 2021/Data/experiments","no","mono","no","18","no","white","no","Next","400","no","768","9","2","9","C:/Users/elus/Documents/RecordingLSL_maybefinal/subject-11.csv","10","[<opensesame_plugins.lsl_start.liblsl.LSL_session object at 0x000001CE58434C88>]","Kafkaesque Koffka","3.2.7","1","0","2","1024","2","48000","-16","experiment","0","11","odd","NA","13804","314632","NA","5968","356888","353878","354885","355887","NA","NA","356888","NA","NA","314634","11804","352864","354384","355386","356388","352836","353864","352757","352836","315634","New experiment","yes","1024"
"<opensesame_plugins.lsl_start.liblsl.LSL_session object at 0x000001CE58434C88>","1","black","[0.0, 0.0]","legacy","0","uniform","82","0","2","0","0","82","82","82","82","2","NA","82","NA","0","2","0","82","82","82","82","82","NA","82","82","2","Thu Nov 18 08:12:19 2021","-6","The main experiment item","yes","experiment.osexp","C:/Users/elus/Demant/+Team OMEXP - Article/ISAAR 2021/Data/experiments","no","mono","no","18","no","white","no","Next","400","no","768","10","2","10","C:/Users/elus/Documents/RecordingLSL_maybefinal/subject-11.csv","10","[<opensesame_plugins.lsl_start.liblsl.LSL_session object at 0x000001CE58434C88>]","Kafkaesque Koffka","3.2.7","2","0","2","1024","2","48000","-16","experiment","0","11","odd","NA","13804","314632","NA","5968","361029","358019","359021","360029","NA","NA","361029","NA","NA","314634","11804","357004","358520","359528","360529","356970","358004","356890","356970","315634","New experiment","yes","1024"
"<opensesame_plugins.lsl_start.liblsl.LSL_session object at 0x000001CE58434C88>","0","black","[0.0, 0.0]","legacy","0","uniform","83","0","2","0","0","83","83","83","83","2","NA","83","NA","0","2","0","83","83","83","83","83","NA","83","83","2","Thu Nov 18 08:12:19 2021","-6.5","The main experiment item","yes","experiment.osexp","C:/Users/elus/Demant/+Team OMEXP - Article/ISAAR 2021/Data/experiments","no","mono","no","18","no","white","no","Next","400","no","768","11","2","11","C:/Users/elus/Documents/RecordingLSL_maybefinal/subject-11.csv","10","[<opensesame_plugins.lsl_start.liblsl.LSL_session object at 0x000001CE58434C88>]","Kafkaesque Koffka","3.2.7","3","0","2","1024","2","48000","-16","experiment","0","11","odd","NA","13804","314632","NA","5968","365164","362159","363161","364163","NA","NA","365164","NA","NA","314634","11804","361145","362660","363662","364664","361112","362145","361032","361112","315634","New experiment","yes","1024"
"<opensesame_plugins.lsl_start.liblsl.LSL_session object at 0x000001CE58434C88>","1","black","[0.0, 0.0]","legacy","0","uniform","84","0","2","0","0","84","84","84","84","2","NA","84","NA","0","2","0","84","84","84","84","84","NA","84","84","2","Thu Nov 18 08:12:19 2021","-6","The main experiment item","yes","experiment.osexp","C:/Users/elus/Demant/+Team OMEXP - Article/ISAAR 2021/Data/experiments","no","mono","no","18","no","white","no","Next","400","no","768","12","2","12","C:/Users/elus/Documents/RecordingLSL_maybefinal/subject-11.csv","10","[<opensesame_plugins.lsl_start.liblsl.LSL_session object at 0x000001CE58434C88>]","Kafkaesque Koffka","3.2.7","1","0","2","1024","2","48000","-16","experiment","0","11","odd","NA","13804","314632","NA","5968","369293","366288","367290","368292","NA","NA","369293","NA","NA","314634","11804","365278","366789","367791","368793","365247","366278","365168","365247","315634","New experiment","yes","1024"
"<opensesame_plugins.lsl_start.liblsl.LSL_session object at 0x000001CE58434C88>","1","black","[0.0, 0.0]","legacy","0","uniform","85","0","2","0","0","85","85","85","85","2","NA","85","NA","0","2","0","85","85","85","85","85","NA","85","85","2","Thu Nov 18 08:12:19 2021","-6","The main experiment item","yes","experiment.osexp","C:/Users/elus/Demant/+Team OMEXP - Article/ISAAR 2021/Data/experiments","no","mono","no","18","no","white","no","Next","400","no","768","13","2","13","C:/Users/elus/Documents/RecordingLSL_maybefinal/subject-11.csv","10","[<opensesame_plugins.lsl_start.liblsl.LSL_session object at 0x000001CE58434C88>]","Kafkaesque Koffka","3.2.7","2","0","2","1024","2","48000","-16","experiment","0","11","odd","NA","13804","314632","NA","5968","373423","370418","371420","372422","NA","NA","373423","NA","NA","314634","11804","369410","370919","371921","372923","369380","370410","369302","369380","315634","New experiment","yes","1024"
"<opensesame_plugins.lsl_start.liblsl.LSL_session object at 0x000001CE58434C88>","1","black","[0.0, 0.0]","legacy","0","uniform","86","0","2","0","0","86","86","86","86","2","NA","86","NA","0","2","0","86","86","86","86","86","NA","86","86","2","Thu Nov 18 08:12:19 2021","-6","The main experiment item","yes","experiment.osexp","C:/Users/elus/Demant/+Team OMEXP - Article/ISAAR 2021/Data/experiments","no","mono","no","18","no","white","no","Next","400","no","768","14","2","14","C:/Users/elus/Documents/RecordingLSL_maybefinal/subject-11.csv","10","[<opensesame_plugins.lsl_start.liblsl.LSL_session object at 0x000001CE58434C88>]","Kafkaesque Koffka","3.2.7","3","0","2","1024","2","48000","-16","experiment","0","11","odd","NA","13804","314632","NA","5968","377552","374547","375549","376551","NA","NA","377552","NA","NA","314634","11804","373531","375048","376050","377052","373503","374531","373425","373503","315634","New experiment","yes","1024"
"<opensesame_plugins.lsl_start.liblsl.LSL_session object at 0x000001CE58434C88>","1","black","[0.0, 0.0]","legacy","0","uniform","87","0","2","0","0","87","87","87","87","2","NA","87","NA","0","2","0","87","87","87","87","87","NA","87","87","2","Thu Nov 18 08:12:19 2021","-6.5","The main experiment item","yes","experiment.osexp","C:/Users/elus/Demant/+Team OMEXP - Article/ISAAR 2021/Data/experiments","no","mono","no","18","no","white","no","Next","400","no","768","15","2","15","C:/Users/elus/Documents/RecordingLSL_maybefinal/subject-11.csv","10","[<opensesame_plugins.lsl_start.liblsl.LSL_session object at 0x000001CE58434C88>]","Kafkaesque Koffka","3.2.7","1","0","2","1024","2","48000","-16","experiment","0","11","odd","NA","13804","314632","NA","5968","381684","378679","379681","380683","NA","NA","381684","NA","NA","314634","11804","377668","379180","380182","381184","377639","378668","377561","377639","315634","New experiment","yes","1024"
"<opensesame_plugins.lsl_start.liblsl.LSL_session object at 0x000001CE58434C88>","1","black","[0.0, 0.0]","legacy","0","uniform","88","0","2","0","0","88","88","88","88","2","NA","88","NA","0","2","0","88","88","88","88","88","NA","88","88","2","Thu Nov 18 08:12:19 2021","-6.5","The main experiment item","yes","experiment.osexp","C:/Users/elus/Demant/+Team OMEXP - Article/ISAAR 2021/Data/experiments","no","mono","no","18","no","white","no","Next","400","no","768","16","2","16","C:/Users/elus/Documents/RecordingLSL_maybefinal/subject-11.csv","10","[<opensesame_plugins.lsl_start.liblsl.LSL_session object at 0x000001CE58434C88>]","Kafkaesque Koffka","3.2.7","2","0","2","1024","2","48000","-16","experiment","0","11","odd","NA","13804","314632","NA","5968","385813","382808","383810","384812","NA","NA","385813","NA","NA","314634","11804","381798","383309","384311","385313","381768","382798","381689","381768","315634","New experiment","yes","1024"
"<opensesame_plugins.lsl_start.liblsl.LSL_session object at 0x000001CE58434C88>","1","black","[0.0, 0.0]","legacy","0","uniform","89","0","2","0","0","89","89","89","89","2","NA","89","NA","0","2","0","89","89","89","89","89","NA","89","89","2","Thu Nov 18 08:12:19 2021","-6.5","The main experiment item","yes","experiment.osexp","C:/Users/elus/Demant/+Team OMEXP - Article/ISAAR 2021/Data/experiments","no","mono","no","18","no","white","no","Next","400","no","768","17","2","17","C:/Users/elus/Documents/RecordingLSL_maybefinal/subject-11.csv","10","[<opensesame_plugins.lsl_start.liblsl.LSL_session object at 0x000001CE58434C88>]","Kafkaesque Koffka","3.2.7","3","0","2","1024","2","48000","-16","experiment","0","11","odd","NA","13804","314632","NA","5968","389943","386938","387940","388942","NA","NA","389943","NA","NA","314634","11804","385929","387439","388441","389443","385899","386929","385821","385899","315634","New experiment","yes","1024"
"<opensesame_plugins.lsl_start.liblsl.LSL_session object at 0x000001CE58434C88>","1","black","[0.0, 0.0]","legacy","0","uniform","90","0","2","0","0","90","90","90","90","2","NA","90","NA","0","2","0","90","90","90","90","90","NA","90","90","2","Thu Nov 18 08:12:19 2021","-7","The main experiment item","yes","experiment.osexp","C:/Users/elus/Demant/+Team OMEXP - Article/ISAAR 2021/Data/experiments","no","mono","no","18","no","white","no","Next","400","no","768","18","2","18","C:/Users/elus/Documents/RecordingLSL_maybefinal/subject-11.csv","10","[<opensesame_plugins.lsl_start.liblsl.LSL_session object at 0x000001CE58434C88>]","Kafkaesque Koffka","3.2.7","1","0","2","1024","2","48000","-16","experiment","0","11","odd","NA","13804","314632","NA","5968","394066","391060","392062","393064","NA","NA","394066","NA","NA","314634","11804","390051","391561","392563","393566","390022","391051","389945","390022","315634","New experiment","yes","1024"
"<opensesame_plugins.lsl_start.liblsl.LSL_session object at 0x000001CE58434C88>","1","black","[0.0, 0.0]","legacy","0","uniform","91","0","2","0","0","91","91","91","91","2","NA","91","NA","0","2","0","91","91","91","91","91","NA","91","91","2","Thu Nov 18 08:12:19 2021","-7","The main experiment item","yes","experiment.osexp","C:/Users/elus/Demant/+Team OMEXP - Article/ISAAR 2021/Data/experiments","no","mono","no","18","no","white","no","Next","400","no","768","19","2","19","C:/Users/elus/Documents/RecordingLSL_maybefinal/subject-11.csv","10","[<opensesame_plugins.lsl_start.liblsl.LSL_session object at 0x000001CE58434C88>]","Kafkaesque Koffka","3.2.7","2","0","2","1024","2","48000","-16","experiment","0","11","odd","NA","13804","314632","NA","5968","398203","395198","396200","397202","NA","NA","398203","NA","NA","314634","11804","394183","395699","396701","397703","394150","395183","394070","394150","315634","New experiment","yes","1024"
"<opensesame_plugins.lsl_start.liblsl.LSL_session object at 0x000001CE58434C88>","1","black","[0.0, 0.0]","legacy","0","uniform","92","0","2","0","0","92","92","92","92","2","NA","92","NA","0","2","0","92","92","92","92","92","NA","92","92","2","Thu Nov 18 08:12:19 2021","-7","The main experiment item","yes","experiment.osexp","C:/Users/elus/Demant/+Team OMEXP - Article/ISAAR 2021/Data/experiments","no","mono","no","18","no","white","no","Next","400","no","768","20","2","20","C:/Users/elus/Documents/RecordingLSL_maybefinal/subject-11.csv","10","[<opensesame_plugins.lsl_start.liblsl.LSL_session object at 0x000001CE58434C88>]","Kafkaesque Koffka","3.2.7","3","0","2","1024","2","48000","-16","experiment","0","11","odd","NA","13804","314632","NA","5968","402333","399328","400330","401332","NA","NA","402333","NA","NA","314634","11804","398314","399829","400831","401833","398282","399314","398205","398282","315634","New experiment","yes","1024"
"<opensesame_plugins.lsl_start.liblsl.LSL_session object at 0x000001CE58434C88>","0","black","[0.0, 0.0]","legacy","0","uniform","93","0","2","0","0","93","93","93","93","2","NA","93","NA","0","2","0","93","93","93","93","93","NA","93","93","2","Thu Nov 18 08:12:19 2021","-7.5","The main experiment item","yes","experiment.osexp","C:/Users/elus/Demant/+Team OMEXP - Article/ISAAR 2021/Data/experiments","no","mono","no","18","no","white","no","Next","400","no","768","21","2","21","C:/Users/elus/Documents/RecordingLSL_maybefinal/subject-11.csv","10","[<opensesame_plugins.lsl_start.liblsl.LSL_session object at 0x000001CE58434C88>]","Kafkaesque Koffka","3.2.7","1","0","2","1024","2","48000","-16","experiment","0","11","odd","NA","13804","314632","NA","5968","406484","403479","404481","405483","NA","NA","406484","NA","NA","314634","11804","402467","403980","404982","405984","402415","403467","402337","402414","315634","New experiment","yes","1024"
"<opensesame_plugins.lsl_start.liblsl.LSL_session object at 0x000001CE58434C88>","1","black","[0.0, 0.0]","legacy","0","uniform","94","0","2","0","0","94","94","94","94","2","NA","94","NA","0","2","0","94","94","94","94","94","NA","94","94","2","Thu Nov 18 08:12:19 2021","-7","The main experiment item","yes","experiment.osexp","C:/Users/elus/Demant/+Team OMEXP - Article/ISAAR 2021/Data/experiments","no","mono","no","18","no","white","no","Next","400","no","768","22","2","22","C:/Users/elus/Documents/RecordingLSL_maybefinal/subject-11.csv","10","[<opensesame_plugins.lsl_start.liblsl.LSL_session object at 0x000001CE58434C88>]","Kafkaesque Koffka","3.2.7","2","0","2","1024","2","48000","-16","experiment","0","11","odd","NA","13804","314632","NA","5968","410733","407728","408730","409732","NA","NA","410733","NA","NA","314634","11804","406717","408229","409231","410233","406592","407717","406486","406592","315634","New experiment","yes","1024"
"<opensesame_plugins.lsl_start.liblsl.LSL_session object at 0x000001CE58434C88>","1","black","[0.0, 0.0]","legacy","0","uniform","95","0","2","0","0","95","95","95","95","2","NA","95","NA","0","2","0","95","95","95","95","95","NA","95","95","2","Thu Nov 18 08:12:19 2021","-7","The main experiment item","yes","experiment.osexp","C:/Users/elus/Demant/+Team OMEXP - Article/ISAAR 2021/Data/experiments","no","mono","no","18","no","white","no","Next","400","no","768","23","2","23","C:/Users/elus/Documents/RecordingLSL_maybefinal/subject-11.csv","10","[<opensesame_plugins.lsl_start.liblsl.LSL_session object at 0x000001CE58434C88>]","Kafkaesque Koffka","3.2.7","3","0","2","1024","2","48000","-16","experiment","0","11","odd","NA","13804","314632","NA","5968","414863","411858","412861","413862","NA","NA","414863","NA","NA","314634","11804","410841","412360","413361","414363","410812","411841","410735","410812","315634","New experiment","yes","1024"
"<opensesame_plugins.lsl_start.liblsl.LSL_session object at 0x000001CE58434C88>","1","black","[0.0, 0.0]","legacy","0","uniform","96","0","2","0","0","96","96","96","96","2","NA","96","NA","0","2","0","96","96","96","96","96","NA","96","96","2","Thu Nov 18 08:12:19 2021","-7","The main experiment item","yes","experiment.osexp","C:/Users/elus/Demant/+Team OMEXP - Article/ISAAR 2021/Data/experiments","no","mono","no","18","no","white","no","Next","400","no","768","24","2","24","C:/Users/elus/Documents/RecordingLSL_maybefinal/subject-11.csv","10","[<opensesame_plugins.lsl_start.liblsl.LSL_session object at 0x000001CE58434C88>]","Kafkaesque Koffka","3.2.7","1","0","2","1024","2","48000","-16","experiment","0","11","odd","NA","13804","314632","NA","5968","418994","415989","416991","417993","NA","NA","418994","NA","NA","314634","11804","414974","416490","417492","418494","414944","415974","414865","414944","315634","New experiment","yes","1024"
"<opensesame_plugins.lsl_start.liblsl.LSL_session object at 0x000001CE58434C88>","1","black","[0.0, 0.0]","legacy","0","uniform","97","0","2","0","0","97","97","97","97","2","NA","97","NA","0","2","0","97","97","97","97","97","NA","97","97","2","Thu Nov 18 08:12:19 2021","-7.5","The main experiment item","yes","experiment.osexp","C:/Users/elus/Demant/+Team OMEXP - Article/ISAAR 2021/Data/experiments","no","mono","no","18","no","white","no","Next","400","no","768","25","2","25","C:/Users/elus/Documents/RecordingLSL_maybefinal/subject-11.csv","10","[<opensesame_plugins.lsl_start.liblsl.LSL_session object at 0x000001CE58434C88>]","Kafkaesque Koffka","3.2.7","2","0","2","1024","2","48000","-16","experiment","0","11","odd","NA","13804","314632","NA","5968","423123","420118","421120","422122","NA","NA","423123","NA","NA","314634","11804","419107","420619","421621","422623","419075","420107","418996","419075","315634","New experiment","yes","1024"
"<opensesame_plugins.lsl_start.liblsl.LSL_session object at 0x000001CE58434C88>","0","black","[0.0, 0.0]","legacy","0","uniform","98","0","2","0","0","98","98","98","98","2","NA","98","NA","0","2","0","98","98","98","98","98","NA","98","98","2","Thu Nov 18 08:12:19 2021","-7.5","The main experiment item","yes","experiment.osexp","C:/Users/elus/Demant/+Team OMEXP - Article/ISAAR 2021/Data/experiments","no","mono","no","18","no","white","no","Next","400","no","768","26","2","26","C:/Users/elus/Documents/RecordingLSL_maybefinal/subject-11.csv","10","[<opensesame_plugins.lsl_start.liblsl.LSL_session object at 0x000001CE58434C88>]","Kafkaesque Koffka","3.2.7","3","0","2","1024","2","48000","-16","experiment","0","11","odd","NA","13804","314632","NA","5968","427253","424248","425250","426252","NA","NA","427253","NA","NA","314634","11804","423234","424749","425751","426753","423205","424234","423125","423205","315634","New experiment","yes","1024"
"<opensesame_plugins.lsl_start.liblsl.LSL_session object at 0x000001CE58434C88>","0","black","[0.0, 0.0]","legacy","0","uniform","99","0","2","0","0","99","99","99","99","2","NA","99","NA","0","2","0","99","99","99","99","99","NA","99","99","2","Thu Nov 18 08:12:19 2021","-7","The main experiment item","yes","experiment.osexp","C:/Users/elus/Demant/+Team OMEXP - Article/ISAAR 2021/Data/experiments","no","mono","no","18","no","white","no","Next","400","no","768","27","2","27","C:/Users/elus/Documents/RecordingLSL_maybefinal/subject-11.csv","10","[<opensesame_plugins.lsl_start.liblsl.LSL_session object at 0x000001CE58434C88>]","Kafkaesque Koffka","3.2.7","1","0","2","1024","2","48000","-16","experiment","0","11","odd","NA","13804","314632","NA","5968","431383","428378","429380","430382","NA","NA","431383","NA","NA","314634","11804","427361","428879","429881","430883","427332","428361","427255","427332","315634","New experiment","yes","1024"
"<opensesame_plugins.lsl_start.liblsl.LSL_session object at 0x000001CE58434C88>","1","black","[0.0, 0.0]","legacy","0","uniform","100","0","2","0","0","100","100","100","100","2","NA","100","NA","0","2","0","100","100","100","100","100","NA","100","100","2","Thu Nov 18 08:12:19 2021","-6.5","The main experiment item","yes","experiment.osexp","C:/Users/elus/Demant/+Team OMEXP - Article/ISAAR 2021/Data/experiments","no","mono","no","18","no","white","no","Next","400","no","768","28","2","28","C:/Users/elus/Documents/RecordingLSL_maybefinal/subject-11.csv","10","[<opensesame_plugins.lsl_start.liblsl.LSL_session object at 0x000001CE58434C88>]","Kafkaesque Koffka","3.2.7","2","0","2","1024","2","48000","-16","experiment","0","11","odd","NA","13804","314632","NA","5968","435513","432508","433510","434512","NA","NA","435513","NA","NA","314634","11804","431492","433009","434011","435013","431463","432492","431385","431463","315634","New experiment","yes","1024"
"<opensesame_plugins.lsl_start.liblsl.LSL_session object at 0x000001CE58434C88>","1","black","[0.0, 0.0]","legacy","0","uniform","101","0","2","0","0","101","101","101","101","2","NA","101","NA","0","2","0","101","101","101","101","101","NA","101","101","2","Thu Nov 18 08:12:19 2021","-6.5","The main experiment item","yes","experiment.osexp","C:/Users/elus/Demant/+Team OMEXP - Article/ISAAR 2021/Data/experiments","no","mono","no","18","no","white","no","Next","400","no","768","29","2","29","C:/Users/elus/Documents/RecordingLSL_maybefinal/subject-11.csv","10","[<opensesame_plugins.lsl_start.liblsl.LSL_session object at 0x000001CE58434C88>]","Kafkaesque Koffka","3.2.7","3","0","2","1024","2","48000","-16","experiment","0","11","odd","NA","13804","314632","NA","5968","439643","436638","437640","438642","NA","NA","439643","NA","NA","314634","11804","435624","437139","438141","439143","435593","436624","435515","435593","315634","New experiment","yes","1024"
"<opensesame_plugins.lsl_start.liblsl.LSL_session object at 0x000001CE58434C88>","1","black","[0.0, 0.0]","legacy","0","uniform","102","0","2","0","0","102","102","102","102","2","NA","102","NA","0","2","0","102","102","102","102","102","NA","102","102","2","Thu Nov 18 08:12:19 2021","-6.5","The main experiment item","yes","experiment.osexp","C:/Users/elus/Demant/+Team OMEXP - Article/ISAAR 2021/Data/experiments","no","mono","no","18","no","white","no","Next","400","no","768","30","2","30","C:/Users/elus/Documents/RecordingLSL_maybefinal/subject-11.csv","10","[<opensesame_plugins.lsl_start.liblsl.LSL_session object at 0x000001CE58434C88>]","Kafkaesque Koffka","3.2.7","1","0","2","1024","2","48000","-16","experiment","0","11","odd","NA","13804","314632","NA","5968","443775","440770","441772","442774","NA","NA","443775","NA","NA","314634","11804","439753","441271","442273","443275","439723","440753","439645","439723","315634","New experiment","yes","1024"
