"LSL","answer","background","calibration","canvas_backend","compensation","coordinates","count_change","count_cond_loop","count_condition","count_end","count_experiment","count_generate_answer","count_neutral","count_neutral_2","count_neutral_3","count_new_adaptive_init","count_new_calibration_light","count_new_logger","count_new_lsl_start_1","count_new_lsl_stop","count_new_sketchpad","count_new_sketchpad_1","count_new_sketchpad_2","count_sig1","count_sig2","count_sig3","count_sound_generation","count_stimulus","count_tracking","count_trial","count_trial_loop","datetime","depth","description","disable_garbage_collection","experiment_file","experiment_path","font_bold","font_family","font_italic","font_size","font_underline","foreground","form_clicks","form_response","frequency","fullscreen","height","live_row","live_row_cond_loop","live_row_trial_loop","logfile","mod_freq","notifiers","opensesame_codename","opensesame_version","position","repeat_cycle","round_decimals","sound_buf_size","sound_channels","sound_freq","sound_sample_size","start","stop","subject_nr","subject_parity","time_change","time_cond_loop","time_condition","time_end","time_experiment","time_generate_answer","time_neutral","time_neutral_2","time_neutral_3","time_new_adaptive_init","time_new_calibration_light","time_new_logger","time_new_lsl_start_1","time_new_lsl_stop","time_new_sketchpad","time_new_sketchpad_1","time_new_sketchpad_2","time_sig1","time_sig2","time_sig3","time_sound_generation","time_stimulus","time_tracking","time_trial","time_trial_loop","title","uniform_coordinates","width"
"<opensesame_plugins.lsl_start.liblsl.LSL_session object at 0x0000015122F53C88>","1","black","[0.0, 0.0]","legacy","0","uniform","0","0","0","0","0","0","0","0","0","0","NA","0","NA","0","0","0","0","0","0","0","0","NA","0","0","0","Wed Nov 17 22:20:07 2021","-6","The main experiment item","yes","experiment.osexp","C:/Users/elus/Demant/+Team OMEXP - Article/ISAAR 2021/Data/experiments","no","mono","no","18","no","white","no","Next","400","no","768","0","0","0","C:/Users/elus/Documents/RecordingLSL_maybefinal/subject-8.csv","5","[<opensesame_plugins.lsl_start.liblsl.LSL_session object at 0x0000015122F53C88>]","Kafkaesque Koffka","3.2.7","1","0","2","1024","2","48000","-16","experiment","0","8","even","NA","11428","11456","NA","5560","16547","13542","14544","15546","NA","NA","16547","NA","NA","11458","9428","12535","14043","15045","16047","12502","13535","NA","12502","12458","New experiment","yes","1024"
"<opensesame_plugins.lsl_start.liblsl.LSL_session object at 0x0000015122F53C88>","1","black","[0.0, 0.0]","legacy","0","uniform","1","0","0","0","0","1","1","1","1","0","NA","1","NA","0","0","0","1","1","1","1","1","NA","1","1","0","Wed Nov 17 22:20:07 2021","-6","The main experiment item","yes","experiment.osexp","C:/Users/elus/Demant/+Team OMEXP - Article/ISAAR 2021/Data/experiments","no","mono","no","18","no","white","no","Next","400","no","768","1","0","1","C:/Users/elus/Documents/RecordingLSL_maybefinal/subject-8.csv","5","[<opensesame_plugins.lsl_start.liblsl.LSL_session object at 0x0000015122F53C88>]","Kafkaesque Koffka","3.2.7","2","0","2","1024","2","48000","-16","experiment","0","8","even","NA","11428","11456","NA","5560","20672","17668","18669","19671","NA","NA","20672","NA","NA","11458","9428","16659","18169","19170","20172","16634","17659","16552","16633","12458","New experiment","yes","1024"
"<opensesame_plugins.lsl_start.liblsl.LSL_session object at 0x0000015122F53C88>","1","black","[0.0, 0.0]","legacy","0","uniform","2","0","0","0","0","2","2","2","2","0","NA","2","NA","0","0","0","2","2","2","2","2","NA","2","2","0","Wed Nov 17 22:20:07 2021","-6","The main experiment item","yes","experiment.osexp","C:/Users/elus/Demant/+Team OMEXP - Article/ISAAR 2021/Data/experiments","no","mono","no","18","no","white","no","Next","400","no","768","2","0","2","C:/Users/elus/Documents/RecordingLSL_maybefinal/subject-8.csv","5","[<opensesame_plugins.lsl_start.liblsl.LSL_session object at 0x0000015122F53C88>]","Kafkaesque Koffka","3.2.7","3","0","2","1024","2","48000","-16","experiment","0","8","even","NA","11428","11456","NA","5560","24802","21797","22799","23801","NA","NA","24802","NA","NA","11458","9428","20782","22298","23300","24302","20753","21782","20674","20753","12458","New experiment","yes","1024"
"<opensesame_plugins.lsl_start.liblsl.LSL_session object at 0x0000015122F53C88>","0","black","[0.0, 0.0]","legacy","0","uniform","3","0","0","0","0","3","3","3","3","0","NA","3","NA","0","0","0","3","3","3","3","3","NA","3","3","0","Wed Nov 17 22:20:07 2021","-7","The main experiment item","yes","experiment.osexp","C:/Users/elus/Demant/+Team OMEXP - Article/ISAAR 2021/Data/experiments","no","mono","no","18","no","white","no","Next","400","no","768","3","0","3","C:/Users/elus/Documents/RecordingLSL_maybefinal/subject-8.csv","5","[<opensesame_plugins.lsl_start.liblsl.LSL_session object at 0x0000015122F53C88>]","Kafkaesque Koffka","3.2.7","1","0","2","1024","2","48000","-16","experiment","0","8","even","NA","11428","11456","NA","5560","28941","25936","26938","27940","NA","NA","28941","NA","NA","11458","9428","24924","26437","27439","28441","24896","25925","24804","24896","12458","New experiment","yes","1024"
"<opensesame_plugins.lsl_start.liblsl.LSL_session object at 0x0000015122F53C88>","1","black","[0.0, 0.0]","legacy","0","uniform","4","0","0","0","0","4","4","4","4","0","NA","4","NA","0","0","0","4","4","4","4","4","NA","4","4","0","Wed Nov 17 22:20:07 2021","-6.5","The main experiment item","yes","experiment.osexp","C:/Users/elus/Demant/+Team OMEXP - Article/ISAAR 2021/Data/experiments","no","mono","no","18","no","white","no","Next","400","no","768","4","0","4","C:/Users/elus/Documents/RecordingLSL_maybefinal/subject-8.csv","5","[<opensesame_plugins.lsl_start.liblsl.LSL_session object at 0x0000015122F53C88>]","Kafkaesque Koffka","3.2.7","2","0","2","1024","2","48000","-16","experiment","0","8","even","NA","11428","11456","NA","5560","33073","30068","31070","32072","NA","NA","33073","NA","NA","11458","9428","29058","30569","31571","32573","29029","30058","28942","29029","12458","New experiment","yes","1024"
"<opensesame_plugins.lsl_start.liblsl.LSL_session object at 0x0000015122F53C88>","1","black","[0.0, 0.0]","legacy","0","uniform","5","0","0","0","0","5","5","5","5","0","NA","5","NA","0","0","0","5","5","5","5","5","NA","5","5","0","Wed Nov 17 22:20:07 2021","-6.5","The main experiment item","yes","experiment.osexp","C:/Users/elus/Demant/+Team OMEXP - Article/ISAAR 2021/Data/experiments","no","mono","no","18","no","white","no","Next","400","no","768","5","0","5","C:/Users/elus/Documents/RecordingLSL_maybefinal/subject-8.csv","5","[<opensesame_plugins.lsl_start.liblsl.LSL_session object at 0x0000015122F53C88>]","Kafkaesque Koffka","3.2.7","3","0","2","1024","2","48000","-16","experiment","0","8","even","NA","11428","11456","NA","5560","37201","34196","35198","36200","NA","NA","37201","NA","NA","11458","9428","33184","34697","35699","36701","33153","34184","33075","33153","12458","New experiment","yes","1024"
"<opensesame_plugins.lsl_start.liblsl.LSL_session object at 0x0000015122F53C88>","1","black","[0.0, 0.0]","legacy","0","uniform","6","0","0","0","0","6","6","6","6","0","NA","6","NA","0","0","0","6","6","6","6","6","NA","6","6","0","Wed Nov 17 22:20:07 2021","-6.5","The main experiment item","yes","experiment.osexp","C:/Users/elus/Demant/+Team OMEXP - Article/ISAAR 2021/Data/experiments","no","mono","no","18","no","white","no","Next","400","no","768","6","0","6","C:/Users/elus/Documents/RecordingLSL_maybefinal/subject-8.csv","5","[<opensesame_plugins.lsl_start.liblsl.LSL_session object at 0x0000015122F53C88>]","Kafkaesque Koffka","3.2.7","1","0","2","1024","2","48000","-16","experiment","0","8","even","NA","11428","11456","NA","5560","41324","38319","39321","40323","NA","NA","41324","NA","NA","11458","9428","37310","38820","39822","40824","37284","38310","37208","37284","12458","New experiment","yes","1024"
"<opensesame_plugins.lsl_start.liblsl.LSL_session object at 0x0000015122F53C88>","1","black","[0.0, 0.0]","legacy","0","uniform","7","0","0","0","0","7","7","7","7","0","NA","7","NA","0","0","0","7","7","7","7","7","NA","7","7","0","Wed Nov 17 22:20:07 2021","-7","The main experiment item","yes","experiment.osexp","C:/Users/elus/Demant/+Team OMEXP - Article/ISAAR 2021/Data/experiments","no","mono","no","18","no","white","no","Next","400","no","768","7","0","7","C:/Users/elus/Documents/RecordingLSL_maybefinal/subject-8.csv","5","[<opensesame_plugins.lsl_start.liblsl.LSL_session object at 0x0000015122F53C88>]","Kafkaesque Koffka","3.2.7","2","0","2","1024","2","48000","-16","experiment","0","8","even","NA","11428","11456","NA","5560","45452","42447","43449","44451","NA","NA","45452","NA","NA","11458","9428","41432","42948","43950","44952","41405","42432","41326","41405","12458","New experiment","yes","1024"
"<opensesame_plugins.lsl_start.liblsl.LSL_session object at 0x0000015122F53C88>","1","black","[0.0, 0.0]","legacy","0","uniform","8","0","0","0","0","8","8","8","8","0","NA","8","NA","0","0","0","8","8","8","8","8","NA","8","8","0","Wed Nov 17 22:20:07 2021","-7","The main experiment item","yes","experiment.osexp","C:/Users/elus/Demant/+Team OMEXP - Article/ISAAR 2021/Data/experiments","no","mono","no","18","no","white","no","Next","400","no","768","8","0","8","C:/Users/elus/Documents/RecordingLSL_maybefinal/subject-8.csv","5","[<opensesame_plugins.lsl_start.liblsl.LSL_session object at 0x0000015122F53C88>]","Kafkaesque Koffka","3.2.7","3","0","2","1024","2","48000","-16","experiment","0","8","even","NA","11428","11456","NA","5560","49582","46577","47579","48581","NA","NA","49582","NA","NA","11458","9428","45566","47078","48080","49082","45537","46566","45459","45537","12458","New experiment","yes","1024"
"<opensesame_plugins.lsl_start.liblsl.LSL_session object at 0x0000015122F53C88>","1","black","[0.0, 0.0]","legacy","0","uniform","9","0","0","0","0","9","9","9","9","0","NA","9","NA","0","0","0","9","9","9","9","9","NA","9","9","0","Wed Nov 17 22:20:07 2021","-7","The main experiment item","yes","experiment.osexp","C:/Users/elus/Demant/+Team OMEXP - Article/ISAAR 2021/Data/experiments","no","mono","no","18","no","white","no","Next","400","no","768","9","0","9","C:/Users/elus/Documents/RecordingLSL_maybefinal/subject-8.csv","5","[<opensesame_plugins.lsl_start.liblsl.LSL_session object at 0x0000015122F53C88>]","Kafkaesque Koffka","3.2.7","1","0","2","1024","2","48000","-16","experiment","0","8","even","NA","11428","11456","NA","5560","53711","50706","51708","52710","NA","NA","53711","NA","NA","11458","9428","49694","51207","52209","53211","49663","50694","49584","49663","12458","New experiment","yes","1024"
"<opensesame_plugins.lsl_start.liblsl.LSL_session object at 0x0000015122F53C88>","1","black","[0.0, 0.0]","legacy","0","uniform","10","0","0","0","0","10","10","10","10","0","NA","10","NA","0","0","0","10","10","10","10","10","NA","10","10","0","Wed Nov 17 22:20:07 2021","-7.5","The main experiment item","yes","experiment.osexp","C:/Users/elus/Demant/+Team OMEXP - Article/ISAAR 2021/Data/experiments","no","mono","no","18","no","white","no","Next","400","no","768","10","0","10","C:/Users/elus/Documents/RecordingLSL_maybefinal/subject-8.csv","5","[<opensesame_plugins.lsl_start.liblsl.LSL_session object at 0x0000015122F53C88>]","Kafkaesque Koffka","3.2.7","2","0","2","1024","2","48000","-16","experiment","0","8","even","NA","11428","11456","NA","5560","57833","54828","55830","56832","NA","NA","57833","NA","NA","11458","9428","53816","55329","56331","57333","53790","54816","53713","53790","12458","New experiment","yes","1024"
"<opensesame_plugins.lsl_start.liblsl.LSL_session object at 0x0000015122F53C88>","1","black","[0.0, 0.0]","legacy","0","uniform","11","0","0","0","0","11","11","11","11","0","NA","11","NA","0","0","0","11","11","11","11","11","NA","11","11","0","Wed Nov 17 22:20:07 2021","-7.5","The main experiment item","yes","experiment.osexp","C:/Users/elus/Demant/+Team OMEXP - Article/ISAAR 2021/Data/experiments","no","mono","no","18","no","white","no","Next","400","no","768","11","0","11","C:/Users/elus/Documents/RecordingLSL_maybefinal/subject-8.csv","5","[<opensesame_plugins.lsl_start.liblsl.LSL_session object at 0x0000015122F53C88>]","Kafkaesque Koffka","3.2.7","3","0","2","1024","2","48000","-16","experiment","0","8","even","NA","11428","11456","NA","5560","61954","58949","59951","60953","NA","NA","61954","NA","NA","11458","9428","57940","59450","60452","61454","57914","58940","57835","57914","12458","New experiment","yes","1024"
"<opensesame_plugins.lsl_start.liblsl.LSL_session object at 0x0000015122F53C88>","1","black","[0.0, 0.0]","legacy","0","uniform","12","0","0","0","0","12","12","12","12","0","NA","12","NA","0","0","0","12","12","12","12","12","NA","12","12","0","Wed Nov 17 22:20:07 2021","-7.5","The main experiment item","yes","experiment.osexp","C:/Users/elus/Demant/+Team OMEXP - Article/ISAAR 2021/Data/experiments","no","mono","no","18","no","white","no","Next","400","no","768","12","0","12","C:/Users/elus/Documents/RecordingLSL_maybefinal/subject-8.csv","5","[<opensesame_plugins.lsl_start.liblsl.LSL_session object at 0x0000015122F53C88>]","Kafkaesque Koffka","3.2.7","1","0","2","1024","2","48000","-16","experiment","0","8","even","NA","11428","11456","NA","5560","66082","63077","64079","65081","NA","NA","66082","NA","NA","11458","9428","62065","63578","64580","65582","62038","63065","61960","62038","12458","New experiment","yes","1024"
"<opensesame_plugins.lsl_start.liblsl.LSL_session object at 0x0000015122F53C88>","1","black","[0.0, 0.0]","legacy","0","uniform","13","0","0","0","0","13","13","13","13","0","NA","13","NA","0","0","0","13","13","13","13","13","NA","13","13","0","Wed Nov 17 22:20:07 2021","-8","The main experiment item","yes","experiment.osexp","C:/Users/elus/Demant/+Team OMEXP - Article/ISAAR 2021/Data/experiments","no","mono","no","18","no","white","no","Next","400","no","768","13","0","13","C:/Users/elus/Documents/RecordingLSL_maybefinal/subject-8.csv","5","[<opensesame_plugins.lsl_start.liblsl.LSL_session object at 0x0000015122F53C88>]","Kafkaesque Koffka","3.2.7","2","0","2","1024","2","48000","-16","experiment","0","8","even","NA","11428","11456","NA","5560","70201","67196","68198","69200","NA","NA","70201","NA","NA","11458","9428","66187","67697","68699","69701","66162","67187","66084","66162","12458","New experiment","yes","1024"
"<opensesame_plugins.lsl_start.liblsl.LSL_session object at 0x0000015122F53C88>","1","black","[0.0, 0.0]","legacy","0","uniform","14","0","0","0","0","14","14","14","14","0","NA","14","NA","0","0","0","14","14","14","14","14","NA","14","14","0","Wed Nov 17 22:20:07 2021","-8","The main experiment item","yes","experiment.osexp","C:/Users/elus/Demant/+Team OMEXP - Article/ISAAR 2021/Data/experiments","no","mono","no","18","no","white","no","Next","400","no","768","14","0","14","C:/Users/elus/Documents/RecordingLSL_maybefinal/subject-8.csv","5","[<opensesame_plugins.lsl_start.liblsl.LSL_session object at 0x0000015122F53C88>]","Kafkaesque Koffka","3.2.7","3","0","2","1024","2","48000","-16","experiment","0","8","even","NA","11428","11456","NA","5560","74331","71326","72328","73330","NA","NA","74331","NA","NA","11458","9428","70311","71827","72829","73831","70282","71311","70203","70282","12458","New experiment","yes","1024"
"<opensesame_plugins.lsl_start.liblsl.LSL_session object at 0x0000015122F53C88>","1","black","[0.0, 0.0]","legacy","0","uniform","15","0","0","0","0","15","15","15","15","0","NA","15","NA","0","0","0","15","15","15","15","15","NA","15","15","0","Wed Nov 17 22:20:07 2021","-8","The main experiment item","yes","experiment.osexp","C:/Users/elus/Demant/+Team OMEXP - Article/ISAAR 2021/Data/experiments","no","mono","no","18","no","white","no","Next","400","no","768","15","0","15","C:/Users/elus/Documents/RecordingLSL_maybefinal/subject-8.csv","5","[<opensesame_plugins.lsl_start.liblsl.LSL_session object at 0x0000015122F53C88>]","Kafkaesque Koffka","3.2.7","1","0","2","1024","2","48000","-16","experiment","0","8","even","NA","11428","11456","NA","5560","78462","75457","76459","77461","NA","NA","78462","NA","NA","11458","9428","74442","75958","76960","77962","74417","75443","74339","74417","12458","New experiment","yes","1024"
"<opensesame_plugins.lsl_start.liblsl.LSL_session object at 0x0000015122F53C88>","0","black","[0.0, 0.0]","legacy","0","uniform","16","0","0","0","0","16","16","16","16","0","NA","16","NA","0","0","0","16","16","16","16","16","NA","16","16","0","Wed Nov 17 22:20:07 2021","-8.5","The main experiment item","yes","experiment.osexp","C:/Users/elus/Demant/+Team OMEXP - Article/ISAAR 2021/Data/experiments","no","mono","no","18","no","white","no","Next","400","no","768","16","0","16","C:/Users/elus/Documents/RecordingLSL_maybefinal/subject-8.csv","5","[<opensesame_plugins.lsl_start.liblsl.LSL_session object at 0x0000015122F53C88>]","Kafkaesque Koffka","3.2.7","2","0","2","1024","2","48000","-16","experiment","0","8","even","NA","11428","11456","NA","5560","82592","79586","80589","81591","NA","NA","82592","NA","NA","11458","9428","78573","80088","81090","82092","78543","79573","78464","78543","12458","New experiment","yes","1024"
"<opensesame_plugins.lsl_start.liblsl.LSL_session object at 0x0000015122F53C88>","1","black","[0.0, 0.0]","legacy","0","uniform","17","0","0","0","0","17","17","17","17","0","NA","17","NA","0","0","0","17","17","17","17","17","NA","17","17","0","Wed Nov 17 22:20:07 2021","-8","The main experiment item","yes","experiment.osexp","C:/Users/elus/Demant/+Team OMEXP - Article/ISAAR 2021/Data/experiments","no","mono","no","18","no","white","no","Next","400","no","768","17","0","17","C:/Users/elus/Documents/RecordingLSL_maybefinal/subject-8.csv","5","[<opensesame_plugins.lsl_start.liblsl.LSL_session object at 0x0000015122F53C88>]","Kafkaesque Koffka","3.2.7","3","0","2","1024","2","48000","-16","experiment","0","8","even","NA","11428","11456","NA","5560","86714","83709","84711","85713","NA","NA","86714","NA","NA","11458","9428","82700","84210","85212","86214","82674","83700","82594","82674","12458","New experiment","yes","1024"
"<opensesame_plugins.lsl_start.liblsl.LSL_session object at 0x0000015122F53C88>","1","black","[0.0, 0.0]","legacy","0","uniform","18","0","0","0","0","18","18","18","18","0","NA","18","NA","0","0","0","18","18","18","18","18","NA","18","18","0","Wed Nov 17 22:20:07 2021","-8","The main experiment item","yes","experiment.osexp","C:/Users/elus/Demant/+Team OMEXP - Article/ISAAR 2021/Data/experiments","no","mono","no","18","no","white","no","Next","400","no","768","18","0","18","C:/Users/elus/Documents/RecordingLSL_maybefinal/subject-8.csv","5","[<opensesame_plugins.lsl_start.liblsl.LSL_session object at 0x0000015122F53C88>]","Kafkaesque Koffka","3.2.7","1","0","2","1024","2","48000","-16","experiment","0","8","even","NA","11428","11456","NA","5560","90852","87847","88849","89851","NA","NA","90852","NA","NA","11458","9428","86831","88348","89350","90352","86805","87831","86727","86805","12458","New experiment","yes","1024"
"<opensesame_plugins.lsl_start.liblsl.LSL_session object at 0x0000015122F53C88>","1","black","[0.0, 0.0]","legacy","0","uniform","19","0","0","0","0","19","19","19","19","0","NA","19","NA","0","0","0","19","19","19","19","19","NA","19","19","0","Wed Nov 17 22:20:07 2021","-8","The main experiment item","yes","experiment.osexp","C:/Users/elus/Demant/+Team OMEXP - Article/ISAAR 2021/Data/experiments","no","mono","no","18","no","white","no","Next","400","no","768","19","0","19","C:/Users/elus/Documents/RecordingLSL_maybefinal/subject-8.csv","5","[<opensesame_plugins.lsl_start.liblsl.LSL_session object at 0x0000015122F53C88>]","Kafkaesque Koffka","3.2.7","2","0","2","1024","2","48000","-16","experiment","0","8","even","NA","11428","11456","NA","5560","94971","91966","92968","93970","NA","NA","94971","NA","NA","11458","9428","90957","92467","93469","94471","90931","91957","90854","90931","12458","New experiment","yes","1024"
"<opensesame_plugins.lsl_start.liblsl.LSL_session object at 0x0000015122F53C88>","0","black","[0.0, 0.0]","legacy","0","uniform","20","0","0","0","0","20","20","20","20","0","NA","20","NA","0","0","0","20","20","20","20","20","NA","20","20","0","Wed Nov 17 22:20:07 2021","-8.5","The main experiment item","yes","experiment.osexp","C:/Users/elus/Demant/+Team OMEXP - Article/ISAAR 2021/Data/experiments","no","mono","no","18","no","white","no","Next","400","no","768","20","0","20","C:/Users/elus/Documents/RecordingLSL_maybefinal/subject-8.csv","5","[<opensesame_plugins.lsl_start.liblsl.LSL_session object at 0x0000015122F53C88>]","Kafkaesque Koffka","3.2.7","3","0","2","1024","2","48000","-16","experiment","0","8","even","NA","11428","11456","NA","5560","99103","96097","97100","98102","NA","NA","99103","NA","NA","11458","9428","95082","96599","97601","98603","95053","96082","94973","95053","12458","New experiment","yes","1024"
"<opensesame_plugins.lsl_start.liblsl.LSL_session object at 0x0000015122F53C88>","1","black","[0.0, 0.0]","legacy","0","uniform","21","0","0","0","0","21","21","21","21","0","NA","21","NA","0","0","0","21","21","21","21","21","NA","21","21","0","Wed Nov 17 22:20:07 2021","-8","The main experiment item","yes","experiment.osexp","C:/Users/elus/Demant/+Team OMEXP - Article/ISAAR 2021/Data/experiments","no","mono","no","18","no","white","no","Next","400","no","768","21","0","21","C:/Users/elus/Documents/RecordingLSL_maybefinal/subject-8.csv","5","[<opensesame_plugins.lsl_start.liblsl.LSL_session object at 0x0000015122F53C88>]","Kafkaesque Koffka","3.2.7","1","0","2","1024","2","48000","-16","experiment","0","8","even","NA","11428","11456","NA","5560","103224","100219","101221","102223","NA","NA","103224","NA","NA","11458","9428","99210","100720","101722","102724","99182","100210","99105","99182","12458","New experiment","yes","1024"
"<opensesame_plugins.lsl_start.liblsl.LSL_session object at 0x0000015122F53C88>","1","black","[0.0, 0.0]","legacy","0","uniform","22","0","0","0","0","22","22","22","22","0","NA","22","NA","0","0","0","22","22","22","22","22","NA","22","22","0","Wed Nov 17 22:20:07 2021","-8","The main experiment item","yes","experiment.osexp","C:/Users/elus/Demant/+Team OMEXP - Article/ISAAR 2021/Data/experiments","no","mono","no","18","no","white","no","Next","400","no","768","22","0","22","C:/Users/elus/Documents/RecordingLSL_maybefinal/subject-8.csv","5","[<opensesame_plugins.lsl_start.liblsl.LSL_session object at 0x0000015122F53C88>]","Kafkaesque Koffka","3.2.7","2","0","2","1024","2","48000","-16","experiment","0","8","even","NA","11428","11456","NA","5560","107352","104347","105349","106351","NA","NA","107352","NA","NA","11458","9428","103330","104848","105850","106852","103304","104330","103226","103304","12458","New experiment","yes","1024"
"<opensesame_plugins.lsl_start.liblsl.LSL_session object at 0x0000015122F53C88>","1","black","[0.0, 0.0]","legacy","0","uniform","23","0","0","0","0","23","23","23","23","0","NA","23","NA","0","0","0","23","23","23","23","23","NA","23","23","0","Wed Nov 17 22:20:07 2021","-8","The main experiment item","yes","experiment.osexp","C:/Users/elus/Demant/+Team OMEXP - Article/ISAAR 2021/Data/experiments","no","mono","no","18","no","white","no","Next","400","no","768","23","0","23","C:/Users/elus/Documents/RecordingLSL_maybefinal/subject-8.csv","5","[<opensesame_plugins.lsl_start.liblsl.LSL_session object at 0x0000015122F53C88>]","Kafkaesque Koffka","3.2.7","3","0","2","1024","2","48000","-16","experiment","0","8","even","NA","11428","11456","NA","5560","111482","108477","109479","110481","NA","NA","111482","NA","NA","11458","9428","107466","108977","109980","110982","107438","108466","107361","107438","12458","New experiment","yes","1024"
"<opensesame_plugins.lsl_start.liblsl.LSL_session object at 0x0000015122F53C88>","1","black","[0.0, 0.0]","legacy","0","uniform","24","0","0","0","0","24","24","24","24","0","NA","24","NA","0","0","0","24","24","24","24","24","NA","24","24","0","Wed Nov 17 22:20:07 2021","-8.5","The main experiment item","yes","experiment.osexp","C:/Users/elus/Demant/+Team OMEXP - Article/ISAAR 2021/Data/experiments","no","mono","no","18","no","white","no","Next","400","no","768","24","0","24","C:/Users/elus/Documents/RecordingLSL_maybefinal/subject-8.csv","5","[<opensesame_plugins.lsl_start.liblsl.LSL_session object at 0x0000015122F53C88>]","Kafkaesque Koffka","3.2.7","1","0","2","1024","2","48000","-16","experiment","0","8","even","NA","11428","11456","NA","5560","115612","112607","113609","114611","NA","NA","115612","NA","NA","11458","9428","111591","113108","114110","115112","111564","112591","111484","111564","12458","New experiment","yes","1024"
"<opensesame_plugins.lsl_start.liblsl.LSL_session object at 0x0000015122F53C88>","1","black","[0.0, 0.0]","legacy","0","uniform","25","0","0","0","0","25","25","25","25","0","NA","25","NA","0","0","0","25","25","25","25","25","NA","25","25","0","Wed Nov 17 22:20:07 2021","-8.5","The main experiment item","yes","experiment.osexp","C:/Users/elus/Demant/+Team OMEXP - Article/ISAAR 2021/Data/experiments","no","mono","no","18","no","white","no","Next","400","no","768","25","0","25","C:/Users/elus/Documents/RecordingLSL_maybefinal/subject-8.csv","5","[<opensesame_plugins.lsl_start.liblsl.LSL_session object at 0x0000015122F53C88>]","Kafkaesque Koffka","3.2.7","2","0","2","1024","2","48000","-16","experiment","0","8","even","NA","11428","11456","NA","5560","119742","116737","117739","118741","NA","NA","119742","NA","NA","11458","9428","115724","117238","118240","119242","115695","116724","115614","115695","12458","New experiment","yes","1024"
"<opensesame_plugins.lsl_start.liblsl.LSL_session object at 0x0000015122F53C88>","0","black","[0.0, 0.0]","legacy","0","uniform","26","0","0","0","0","26","26","26","26","0","NA","26","NA","0","0","0","26","26","26","26","26","NA","26","26","0","Wed Nov 17 22:20:07 2021","-8.5","The main experiment item","yes","experiment.osexp","C:/Users/elus/Demant/+Team OMEXP - Article/ISAAR 2021/Data/experiments","no","mono","no","18","no","white","no","Next","400","no","768","26","0","26","C:/Users/elus/Documents/RecordingLSL_maybefinal/subject-8.csv","5","[<opensesame_plugins.lsl_start.liblsl.LSL_session object at 0x0000015122F53C88>]","Kafkaesque Koffka","3.2.7","3","0","2","1024","2","48000","-16","experiment","0","8","even","NA","11428","11456","NA","5560","123872","120867","121869","122871","NA","NA","123872","NA","NA","11458","9428","119856","121368","122370","123372","119827","120856","119748","119827","12458","New experiment","yes","1024"
"<opensesame_plugins.lsl_start.liblsl.LSL_session object at 0x0000015122F53C88>","1","black","[0.0, 0.0]","legacy","0","uniform","27","0","0","0","0","27","27","27","27","0","NA","27","NA","0","0","0","27","27","27","27","27","NA","27","27","0","Wed Nov 17 22:20:07 2021","-8","The main experiment item","yes","experiment.osexp","C:/Users/elus/Demant/+Team OMEXP - Article/ISAAR 2021/Data/experiments","no","mono","no","18","no","white","no","Next","400","no","768","27","0","27","C:/Users/elus/Documents/RecordingLSL_maybefinal/subject-8.csv","5","[<opensesame_plugins.lsl_start.liblsl.LSL_session object at 0x0000015122F53C88>]","Kafkaesque Koffka","3.2.7","1","0","2","1024","2","48000","-16","experiment","0","8","even","NA","11428","11456","NA","5560","128001","124996","125998","127000","NA","NA","128001","NA","NA","11458","9428","123981","125497","126499","127501","123954","124982","123875","123954","12458","New experiment","yes","1024"
"<opensesame_plugins.lsl_start.liblsl.LSL_session object at 0x0000015122F53C88>","1","black","[0.0, 0.0]","legacy","0","uniform","28","0","0","0","0","28","28","28","28","0","NA","28","NA","0","0","0","28","28","28","28","28","NA","28","28","0","Wed Nov 17 22:20:07 2021","-8","The main experiment item","yes","experiment.osexp","C:/Users/elus/Demant/+Team OMEXP - Article/ISAAR 2021/Data/experiments","no","mono","no","18","no","white","no","Next","400","no","768","28","0","28","C:/Users/elus/Documents/RecordingLSL_maybefinal/subject-8.csv","5","[<opensesame_plugins.lsl_start.liblsl.LSL_session object at 0x0000015122F53C88>]","Kafkaesque Koffka","3.2.7","2","0","2","1024","2","48000","-16","experiment","0","8","even","NA","11428","11456","NA","5560","132124","129119","130121","131123","NA","NA","132124","NA","NA","11458","9428","128106","129620","130622","131624","128081","129106","128003","128080","12458","New experiment","yes","1024"
"<opensesame_plugins.lsl_start.liblsl.LSL_session object at 0x0000015122F53C88>","1","black","[0.0, 0.0]","legacy","0","uniform","29","0","0","0","0","29","29","29","29","0","NA","29","NA","0","0","0","29","29","29","29","29","NA","29","29","0","Wed Nov 17 22:20:07 2021","-8","The main experiment item","yes","experiment.osexp","C:/Users/elus/Demant/+Team OMEXP - Article/ISAAR 2021/Data/experiments","no","mono","no","18","no","white","no","Next","400","no","768","29","0","29","C:/Users/elus/Documents/RecordingLSL_maybefinal/subject-8.csv","5","[<opensesame_plugins.lsl_start.liblsl.LSL_session object at 0x0000015122F53C88>]","Kafkaesque Koffka","3.2.7","3","0","2","1024","2","48000","-16","experiment","0","8","even","NA","11428","11456","NA","5560","136260","133256","134258","135260","NA","NA","136260","NA","NA","11458","9428","132241","133757","134759","135760","132214","133241","132126","132214","12458","New experiment","yes","1024"
"<opensesame_plugins.lsl_start.liblsl.LSL_session object at 0x0000015122F53C88>","1","black","[0.0, 0.0]","legacy","0","uniform","30","0","0","0","0","30","30","30","30","0","NA","30","NA","0","0","0","30","30","30","30","30","NA","30","30","0","Wed Nov 17 22:20:07 2021","-8.5","The main experiment item","yes","experiment.osexp","C:/Users/elus/Demant/+Team OMEXP - Article/ISAAR 2021/Data/experiments","no","mono","no","18","no","white","no","Next","400","no","768","30","0","30","C:/Users/elus/Documents/RecordingLSL_maybefinal/subject-8.csv","5","[<opensesame_plugins.lsl_start.liblsl.LSL_session object at 0x0000015122F53C88>]","Kafkaesque Koffka","3.2.7","1","0","2","1024","2","48000","-16","experiment","0","8","even","NA","11428","11456","NA","5560","140384","137378","138380","139383","NA","NA","140384","NA","NA","11458","9428","136369","137879","138882","139884","136342","137369","136262","136342","12458","New experiment","yes","1024"
"<opensesame_plugins.lsl_start.liblsl.LSL_session object at 0x0000015122F53C88>","0","black","[0.0, 0.0]","legacy","0","uniform","31","0","0","0","0","31","31","31","31","0","NA","31","NA","0","0","0","31","31","31","31","31","NA","31","31","0","Wed Nov 17 22:20:07 2021","-8.5","The main experiment item","yes","experiment.osexp","C:/Users/elus/Demant/+Team OMEXP - Article/ISAAR 2021/Data/experiments","no","mono","no","18","no","white","no","Next","400","no","768","31","0","31","C:/Users/elus/Documents/RecordingLSL_maybefinal/subject-8.csv","5","[<opensesame_plugins.lsl_start.liblsl.LSL_session object at 0x0000015122F53C88>]","Kafkaesque Koffka","3.2.7","2","0","2","1024","2","48000","-16","experiment","0","8","even","NA","11428","11456","NA","5560","144511","141506","142508","143510","NA","NA","144511","NA","NA","11458","9428","140496","142007","143009","144011","140466","141496","140387","140466","12458","New experiment","yes","1024"
"<opensesame_plugins.lsl_start.liblsl.LSL_session object at 0x0000015122F53C88>","1","black","[0.0, 0.0]","legacy","0","uniform","32","0","0","0","0","32","32","32","32","0","NA","32","NA","0","0","0","32","32","32","32","32","NA","32","32","0","Wed Nov 17 22:20:07 2021","-8","The main experiment item","yes","experiment.osexp","C:/Users/elus/Demant/+Team OMEXP - Article/ISAAR 2021/Data/experiments","no","mono","no","18","no","white","no","Next","400","no","768","32","0","32","C:/Users/elus/Documents/RecordingLSL_maybefinal/subject-8.csv","5","[<opensesame_plugins.lsl_start.liblsl.LSL_session object at 0x0000015122F53C88>]","Kafkaesque Koffka","3.2.7","3","0","2","1024","2","48000","-16","experiment","0","8","even","NA","11428","11456","NA","5560","148635","145629","146631","147633","NA","NA","148635","NA","NA","11458","9428","144620","146130","147132","148135","144591","145620","144513","144591","12458","New experiment","yes","1024"
"<opensesame_plugins.lsl_start.liblsl.LSL_session object at 0x0000015122F53C88>","1","black","[0.0, 0.0]","legacy","0","uniform","33","0","0","0","0","33","33","33","33","0","NA","33","NA","0","0","0","33","33","33","33","33","NA","33","33","0","Wed Nov 17 22:20:07 2021","-8","The main experiment item","yes","experiment.osexp","C:/Users/elus/Demant/+Team OMEXP - Article/ISAAR 2021/Data/experiments","no","mono","no","18","no","white","no","Next","400","no","768","33","0","33","C:/Users/elus/Documents/RecordingLSL_maybefinal/subject-8.csv","5","[<opensesame_plugins.lsl_start.liblsl.LSL_session object at 0x0000015122F53C88>]","Kafkaesque Koffka","3.2.7","1","0","2","1024","2","48000","-16","experiment","0","8","even","NA","11428","11456","NA","5560","152762","149756","150759","151761","NA","NA","152762","NA","NA","11458","9428","148742","150258","151260","152262","148717","149742","148637","148717","12458","New experiment","yes","1024"
"<opensesame_plugins.lsl_start.liblsl.LSL_session object at 0x0000015122F53C88>","1","black","[0.0, 0.0]","legacy","0","uniform","34","0","0","0","0","34","34","34","34","0","NA","34","NA","0","0","0","34","34","34","34","34","NA","34","34","0","Wed Nov 17 22:20:07 2021","-8","The main experiment item","yes","experiment.osexp","C:/Users/elus/Demant/+Team OMEXP - Article/ISAAR 2021/Data/experiments","no","mono","no","18","no","white","no","Next","400","no","768","34","0","34","C:/Users/elus/Documents/RecordingLSL_maybefinal/subject-8.csv","5","[<opensesame_plugins.lsl_start.liblsl.LSL_session object at 0x0000015122F53C88>]","Kafkaesque Koffka","3.2.7","2","0","2","1024","2","48000","-16","experiment","0","8","even","NA","11428","11456","NA","5560","156882","153877","154879","155881","NA","NA","156882","NA","NA","11458","9428","152869","154378","155380","156382","152844","153869","152766","152844","12458","New experiment","yes","1024"
"<opensesame_plugins.lsl_start.liblsl.LSL_session object at 0x0000015122F53C88>","0","black","[0.0, 0.0]","legacy","0","uniform","35","0","0","0","0","35","35","35","35","0","NA","35","NA","0","0","0","35","35","35","35","35","NA","35","35","0","Wed Nov 17 22:20:07 2021","-8.5","The main experiment item","yes","experiment.osexp","C:/Users/elus/Demant/+Team OMEXP - Article/ISAAR 2021/Data/experiments","no","mono","no","18","no","white","no","Next","400","no","768","35","0","35","C:/Users/elus/Documents/RecordingLSL_maybefinal/subject-8.csv","5","[<opensesame_plugins.lsl_start.liblsl.LSL_session object at 0x0000015122F53C88>]","Kafkaesque Koffka","3.2.7","3","0","2","1024","2","48000","-16","experiment","0","8","even","NA","11428","11456","NA","5560","161011","158006","159008","160010","NA","NA","161011","NA","NA","11458","9428","156991","158507","159509","160511","156962","157991","156884","156962","12458","New experiment","yes","1024"
"<opensesame_plugins.lsl_start.liblsl.LSL_session object at 0x0000015122F53C88>","1","black","[0.0, 0.0]","legacy","0","uniform","36","0","1","0","0","36","36","36","36","1","NA","36","NA","0","1","0","36","36","36","36","36","NA","36","36","1","Wed Nov 17 22:20:07 2021","-6","The main experiment item","yes","experiment.osexp","C:/Users/elus/Demant/+Team OMEXP - Article/ISAAR 2021/Data/experiments","no","mono","no","18","no","white","no","Next","1000","no","768","0","1","0","C:/Users/elus/Documents/RecordingLSL_maybefinal/subject-8.csv","5","[<opensesame_plugins.lsl_start.liblsl.LSL_session object at 0x0000015122F53C88>]","Kafkaesque Koffka","3.2.7","1","0","2","1024","2","48000","-16","experiment","0","8","even","NA","11428","161105","NA","5560","166217","163207","164214","165216","NA","NA","166217","NA","NA","161106","9428","162196","163708","164715","165717","162154","163196","161017","162154","162106","New experiment","yes","1024"
"<opensesame_plugins.lsl_start.liblsl.LSL_session object at 0x0000015122F53C88>","1","black","[0.0, 0.0]","legacy","0","uniform","37","0","1","0","0","37","37","37","37","1","NA","37","NA","0","1","0","37","37","37","37","37","NA","37","37","1","Wed Nov 17 22:20:07 2021","-6","The main experiment item","yes","experiment.osexp","C:/Users/elus/Demant/+Team OMEXP - Article/ISAAR 2021/Data/experiments","no","mono","no","18","no","white","no","Next","1000","no","768","1","1","1","C:/Users/elus/Documents/RecordingLSL_maybefinal/subject-8.csv","5","[<opensesame_plugins.lsl_start.liblsl.LSL_session object at 0x0000015122F53C88>]","Kafkaesque Koffka","3.2.7","2","0","2","1024","2","48000","-16","experiment","0","8","even","NA","11428","161105","NA","5560","170387","167377","168384","169386","NA","NA","170387","NA","NA","161106","9428","166353","167878","168885","169887","166304","167353","166219","166304","162106","New experiment","yes","1024"
"<opensesame_plugins.lsl_start.liblsl.LSL_session object at 0x0000015122F53C88>","1","black","[0.0, 0.0]","legacy","0","uniform","38","0","1","0","0","38","38","38","38","1","NA","38","NA","0","1","0","38","38","38","38","38","NA","38","38","1","Wed Nov 17 22:20:07 2021","-6","The main experiment item","yes","experiment.osexp","C:/Users/elus/Demant/+Team OMEXP - Article/ISAAR 2021/Data/experiments","no","mono","no","18","no","white","no","Next","1000","no","768","2","1","2","C:/Users/elus/Documents/RecordingLSL_maybefinal/subject-8.csv","5","[<opensesame_plugins.lsl_start.liblsl.LSL_session object at 0x0000015122F53C88>]","Kafkaesque Koffka","3.2.7","3","0","2","1024","2","48000","-16","experiment","0","8","even","NA","11428","161105","NA","5560","174551","171541","172548","173550","NA","NA","174551","NA","NA","161106","9428","170520","172042","173049","174051","170483","171520","170389","170483","162106","New experiment","yes","1024"
"<opensesame_plugins.lsl_start.liblsl.LSL_session object at 0x0000015122F53C88>","0","black","[0.0, 0.0]","legacy","0","uniform","39","0","1","0","0","39","39","39","39","1","NA","39","NA","0","1","0","39","39","39","39","39","NA","39","39","1","Wed Nov 17 22:20:07 2021","-7","The main experiment item","yes","experiment.osexp","C:/Users/elus/Demant/+Team OMEXP - Article/ISAAR 2021/Data/experiments","no","mono","no","18","no","white","no","Next","1000","no","768","3","1","3","C:/Users/elus/Documents/RecordingLSL_maybefinal/subject-8.csv","5","[<opensesame_plugins.lsl_start.liblsl.LSL_session object at 0x0000015122F53C88>]","Kafkaesque Koffka","3.2.7","1","0","2","1024","2","48000","-16","experiment","0","8","even","NA","11428","161105","NA","5560","178724","175715","176721","177723","NA","NA","178724","NA","NA","161106","9428","174699","176216","177222","178224","174663","175699","174553","174663","162106","New experiment","yes","1024"
"<opensesame_plugins.lsl_start.liblsl.LSL_session object at 0x0000015122F53C88>","1","black","[0.0, 0.0]","legacy","0","uniform","40","0","1","0","0","40","40","40","40","1","NA","40","NA","0","1","0","40","40","40","40","40","NA","40","40","1","Wed Nov 17 22:20:07 2021","-6.5","The main experiment item","yes","experiment.osexp","C:/Users/elus/Demant/+Team OMEXP - Article/ISAAR 2021/Data/experiments","no","mono","no","18","no","white","no","Next","1000","no","768","4","1","4","C:/Users/elus/Documents/RecordingLSL_maybefinal/subject-8.csv","5","[<opensesame_plugins.lsl_start.liblsl.LSL_session object at 0x0000015122F53C88>]","Kafkaesque Koffka","3.2.7","2","0","2","1024","2","48000","-16","experiment","0","8","even","NA","11428","161105","NA","5560","182898","179889","180895","181897","NA","NA","182898","NA","NA","161106","9428","178868","180390","181396","182398","178833","179868","178726","178833","162106","New experiment","yes","1024"
"<opensesame_plugins.lsl_start.liblsl.LSL_session object at 0x0000015122F53C88>","1","black","[0.0, 0.0]","legacy","0","uniform","41","0","1","0","0","41","41","41","41","1","NA","41","NA","0","1","0","41","41","41","41","41","NA","41","41","1","Wed Nov 17 22:20:07 2021","-6.5","The main experiment item","yes","experiment.osexp","C:/Users/elus/Demant/+Team OMEXP - Article/ISAAR 2021/Data/experiments","no","mono","no","18","no","white","no","Next","1000","no","768","5","1","5","C:/Users/elus/Documents/RecordingLSL_maybefinal/subject-8.csv","5","[<opensesame_plugins.lsl_start.liblsl.LSL_session object at 0x0000015122F53C88>]","Kafkaesque Koffka","3.2.7","3","0","2","1024","2","48000","-16","experiment","0","8","even","NA","11428","161105","NA","5560","187063","184047","185060","186062","NA","NA","187063","NA","NA","161106","9428","183029","184549","185561","186563","182992","184029","182900","182992","162106","New experiment","yes","1024"
"<opensesame_plugins.lsl_start.liblsl.LSL_session object at 0x0000015122F53C88>","1","black","[0.0, 0.0]","legacy","0","uniform","42","0","1","0","0","42","42","42","42","1","NA","42","NA","0","1","0","42","42","42","42","42","NA","42","42","1","Wed Nov 17 22:20:07 2021","-6.5","The main experiment item","yes","experiment.osexp","C:/Users/elus/Demant/+Team OMEXP - Article/ISAAR 2021/Data/experiments","no","mono","no","18","no","white","no","Next","1000","no","768","6","1","6","C:/Users/elus/Documents/RecordingLSL_maybefinal/subject-8.csv","5","[<opensesame_plugins.lsl_start.liblsl.LSL_session object at 0x0000015122F53C88>]","Kafkaesque Koffka","3.2.7","1","0","2","1024","2","48000","-16","experiment","0","8","even","NA","11428","161105","NA","5560","191231","188214","189226","190229","NA","NA","191231","NA","NA","161106","9428","187194","188715","189727","190731","187159","188194","187065","187159","162106","New experiment","yes","1024"
"<opensesame_plugins.lsl_start.liblsl.LSL_session object at 0x0000015122F53C88>","1","black","[0.0, 0.0]","legacy","0","uniform","43","0","1","0","0","43","43","43","43","1","NA","43","NA","0","1","0","43","43","43","43","43","NA","43","43","1","Wed Nov 17 22:20:07 2021","-7","The main experiment item","yes","experiment.osexp","C:/Users/elus/Demant/+Team OMEXP - Article/ISAAR 2021/Data/experiments","no","mono","no","18","no","white","no","Next","1000","no","768","7","1","7","C:/Users/elus/Documents/RecordingLSL_maybefinal/subject-8.csv","5","[<opensesame_plugins.lsl_start.liblsl.LSL_session object at 0x0000015122F53C88>]","Kafkaesque Koffka","3.2.7","2","0","2","1024","2","48000","-16","experiment","0","8","even","NA","11428","161105","NA","5560","195398","192383","193395","194397","NA","NA","195398","NA","NA","161106","9428","191365","192884","193896","194898","191329","192365","191233","191329","162106","New experiment","yes","1024"
"<opensesame_plugins.lsl_start.liblsl.LSL_session object at 0x0000015122F53C88>","0","black","[0.0, 0.0]","legacy","0","uniform","44","0","1","0","0","44","44","44","44","1","NA","44","NA","0","1","0","44","44","44","44","44","NA","44","44","1","Wed Nov 17 22:20:07 2021","-7","The main experiment item","yes","experiment.osexp","C:/Users/elus/Demant/+Team OMEXP - Article/ISAAR 2021/Data/experiments","no","mono","no","18","no","white","no","Next","1000","no","768","8","1","8","C:/Users/elus/Documents/RecordingLSL_maybefinal/subject-8.csv","5","[<opensesame_plugins.lsl_start.liblsl.LSL_session object at 0x0000015122F53C88>]","Kafkaesque Koffka","3.2.7","3","0","2","1024","2","48000","-16","experiment","0","8","even","NA","11428","161105","NA","5560","199562","196553","197559","198561","NA","NA","199562","NA","NA","161106","9428","195532","197054","198060","199062","195495","196532","195400","195495","162106","New experiment","yes","1024"
"<opensesame_plugins.lsl_start.liblsl.LSL_session object at 0x0000015122F53C88>","1","black","[0.0, 0.0]","legacy","0","uniform","45","0","1","0","0","45","45","45","45","1","NA","45","NA","0","1","0","45","45","45","45","45","NA","45","45","1","Wed Nov 17 22:20:07 2021","-6.5","The main experiment item","yes","experiment.osexp","C:/Users/elus/Demant/+Team OMEXP - Article/ISAAR 2021/Data/experiments","no","mono","no","18","no","white","no","Next","1000","no","768","9","1","9","C:/Users/elus/Documents/RecordingLSL_maybefinal/subject-8.csv","5","[<opensesame_plugins.lsl_start.liblsl.LSL_session object at 0x0000015122F53C88>]","Kafkaesque Koffka","3.2.7","1","0","2","1024","2","48000","-16","experiment","0","8","even","NA","11428","161105","NA","5560","203724","200714","201721","202723","NA","NA","203724","NA","NA","161106","9428","199697","201215","202222","203224","199658","200697","199564","199658","162106","New experiment","yes","1024"
"<opensesame_plugins.lsl_start.liblsl.LSL_session object at 0x0000015122F53C88>","1","black","[0.0, 0.0]","legacy","0","uniform","46","0","1","0","0","46","46","46","46","1","NA","46","NA","0","1","0","46","46","46","46","46","NA","46","46","1","Wed Nov 17 22:20:07 2021","-6.5","The main experiment item","yes","experiment.osexp","C:/Users/elus/Demant/+Team OMEXP - Article/ISAAR 2021/Data/experiments","no","mono","no","18","no","white","no","Next","1000","no","768","10","1","10","C:/Users/elus/Documents/RecordingLSL_maybefinal/subject-8.csv","5","[<opensesame_plugins.lsl_start.liblsl.LSL_session object at 0x0000015122F53C88>]","Kafkaesque Koffka","3.2.7","2","0","2","1024","2","48000","-16","experiment","0","8","even","NA","11428","161105","NA","5560","207877","204866","205874","206876","NA","NA","207877","NA","NA","161106","9428","203857","205367","206375","207377","203822","204857","203726","203822","162106","New experiment","yes","1024"
"<opensesame_plugins.lsl_start.liblsl.LSL_session object at 0x0000015122F53C88>","1","black","[0.0, 0.0]","legacy","0","uniform","47","0","1","0","0","47","47","47","47","1","NA","47","NA","0","1","0","47","47","47","47","47","NA","47","47","1","Wed Nov 17 22:20:07 2021","-6.5","The main experiment item","yes","experiment.osexp","C:/Users/elus/Demant/+Team OMEXP - Article/ISAAR 2021/Data/experiments","no","mono","no","18","no","white","no","Next","1000","no","768","11","1","11","C:/Users/elus/Documents/RecordingLSL_maybefinal/subject-8.csv","5","[<opensesame_plugins.lsl_start.liblsl.LSL_session object at 0x0000015122F53C88>]","Kafkaesque Koffka","3.2.7","3","0","2","1024","2","48000","-16","experiment","0","8","even","NA","11428","161105","NA","5560","212046","209038","210043","211045","NA","NA","212046","NA","NA","161106","9428","208011","209539","210544","211546","207974","209012","207879","207974","162106","New experiment","yes","1024"
"<opensesame_plugins.lsl_start.liblsl.LSL_session object at 0x0000015122F53C88>","1","black","[0.0, 0.0]","legacy","0","uniform","48","0","1","0","0","48","48","48","48","1","NA","48","NA","0","1","0","48","48","48","48","48","NA","48","48","1","Wed Nov 17 22:20:07 2021","-7","The main experiment item","yes","experiment.osexp","C:/Users/elus/Demant/+Team OMEXP - Article/ISAAR 2021/Data/experiments","no","mono","no","18","no","white","no","Next","1000","no","768","12","1","12","C:/Users/elus/Documents/RecordingLSL_maybefinal/subject-8.csv","5","[<opensesame_plugins.lsl_start.liblsl.LSL_session object at 0x0000015122F53C88>]","Kafkaesque Koffka","3.2.7","1","0","2","1024","2","48000","-16","experiment","0","8","even","NA","11428","161105","NA","5560","216214","213204","214211","215213","NA","NA","216214","NA","NA","161106","9428","212182","213705","214712","215714","212150","213182","212055","212150","162106","New experiment","yes","1024"
"<opensesame_plugins.lsl_start.liblsl.LSL_session object at 0x0000015122F53C88>","1","black","[0.0, 0.0]","legacy","0","uniform","49","0","1","0","0","49","49","49","49","1","NA","49","NA","0","1","0","49","49","49","49","49","NA","49","49","1","Wed Nov 17 22:20:07 2021","-7","The main experiment item","yes","experiment.osexp","C:/Users/elus/Demant/+Team OMEXP - Article/ISAAR 2021/Data/experiments","no","mono","no","18","no","white","no","Next","1000","no","768","13","1","13","C:/Users/elus/Documents/RecordingLSL_maybefinal/subject-8.csv","5","[<opensesame_plugins.lsl_start.liblsl.LSL_session object at 0x0000015122F53C88>]","Kafkaesque Koffka","3.2.7","2","0","2","1024","2","48000","-16","experiment","0","8","even","NA","11428","161105","NA","5560","220391","217378","218388","219390","NA","NA","220391","NA","NA","161106","9428","216357","217879","218889","219891","216325","217357","216231","216325","162106","New experiment","yes","1024"
"<opensesame_plugins.lsl_start.liblsl.LSL_session object at 0x0000015122F53C88>","1","black","[0.0, 0.0]","legacy","0","uniform","50","0","1","0","0","50","50","50","50","1","NA","50","NA","0","1","0","50","50","50","50","50","NA","50","50","1","Wed Nov 17 22:20:07 2021","-7","The main experiment item","yes","experiment.osexp","C:/Users/elus/Demant/+Team OMEXP - Article/ISAAR 2021/Data/experiments","no","mono","no","18","no","white","no","Next","1000","no","768","14","1","14","C:/Users/elus/Documents/RecordingLSL_maybefinal/subject-8.csv","5","[<opensesame_plugins.lsl_start.liblsl.LSL_session object at 0x0000015122F53C88>]","Kafkaesque Koffka","3.2.7","3","0","2","1024","2","48000","-16","experiment","0","8","even","NA","11428","161105","NA","5560","224557","221544","222554","223556","NA","NA","224557","NA","NA","161106","9428","220522","222045","223055","224057","220488","221522","220393","220488","162106","New experiment","yes","1024"
"<opensesame_plugins.lsl_start.liblsl.LSL_session object at 0x0000015122F53C88>","0","black","[0.0, 0.0]","legacy","0","uniform","51","0","1","0","0","51","51","51","51","1","NA","51","NA","0","1","0","51","51","51","51","51","NA","51","51","1","Wed Nov 17 22:20:07 2021","-7.5","The main experiment item","yes","experiment.osexp","C:/Users/elus/Demant/+Team OMEXP - Article/ISAAR 2021/Data/experiments","no","mono","no","18","no","white","no","Next","1000","no","768","15","1","15","C:/Users/elus/Documents/RecordingLSL_maybefinal/subject-8.csv","5","[<opensesame_plugins.lsl_start.liblsl.LSL_session object at 0x0000015122F53C88>]","Kafkaesque Koffka","3.2.7","1","0","2","1024","2","48000","-16","experiment","0","8","even","NA","11428","161105","NA","5560","228729","225715","226726","227728","NA","NA","228729","NA","NA","161106","9428","224693","226216","227227","228229","224660","225693","224566","224660","162106","New experiment","yes","1024"
"<opensesame_plugins.lsl_start.liblsl.LSL_session object at 0x0000015122F53C88>","1","black","[0.0, 0.0]","legacy","0","uniform","52","0","1","0","0","52","52","52","52","1","NA","52","NA","0","1","0","52","52","52","52","52","NA","52","52","1","Wed Nov 17 22:20:07 2021","-7","The main experiment item","yes","experiment.osexp","C:/Users/elus/Demant/+Team OMEXP - Article/ISAAR 2021/Data/experiments","no","mono","no","18","no","white","no","Next","1000","no","768","16","1","16","C:/Users/elus/Documents/RecordingLSL_maybefinal/subject-8.csv","5","[<opensesame_plugins.lsl_start.liblsl.LSL_session object at 0x0000015122F53C88>]","Kafkaesque Koffka","3.2.7","2","0","2","1024","2","48000","-16","experiment","0","8","even","NA","11428","161105","NA","5560","232901","229893","230898","231900","NA","NA","232901","NA","NA","161106","9428","228870","230394","231399","232401","228836","229870","228738","228836","162106","New experiment","yes","1024"
"<opensesame_plugins.lsl_start.liblsl.LSL_session object at 0x0000015122F53C88>","1","black","[0.0, 0.0]","legacy","0","uniform","53","0","1","0","0","53","53","53","53","1","NA","53","NA","0","1","0","53","53","53","53","53","NA","53","53","1","Wed Nov 17 22:20:07 2021","-7","The main experiment item","yes","experiment.osexp","C:/Users/elus/Demant/+Team OMEXP - Article/ISAAR 2021/Data/experiments","no","mono","no","18","no","white","no","Next","1000","no","768","17","1","17","C:/Users/elus/Documents/RecordingLSL_maybefinal/subject-8.csv","5","[<opensesame_plugins.lsl_start.liblsl.LSL_session object at 0x0000015122F53C88>]","Kafkaesque Koffka","3.2.7","3","0","2","1024","2","48000","-16","experiment","0","8","even","NA","11428","161105","NA","5560","237067","234059","235064","236066","NA","NA","237067","NA","NA","161106","9428","233038","234560","235565","236567","233001","234038","232906","233001","162106","New experiment","yes","1024"
"<opensesame_plugins.lsl_start.liblsl.LSL_session object at 0x0000015122F53C88>","1","black","[0.0, 0.0]","legacy","0","uniform","54","0","1","0","0","54","54","54","54","1","NA","54","NA","0","1","0","54","54","54","54","54","NA","54","54","1","Wed Nov 17 22:20:07 2021","-7","The main experiment item","yes","experiment.osexp","C:/Users/elus/Demant/+Team OMEXP - Article/ISAAR 2021/Data/experiments","no","mono","no","18","no","white","no","Next","1000","no","768","18","1","18","C:/Users/elus/Documents/RecordingLSL_maybefinal/subject-8.csv","5","[<opensesame_plugins.lsl_start.liblsl.LSL_session object at 0x0000015122F53C88>]","Kafkaesque Koffka","3.2.7","1","0","2","1024","2","48000","-16","experiment","0","8","even","NA","11428","161105","NA","5560","241232","238223","239229","240231","NA","NA","241232","NA","NA","161106","9428","237199","238724","239730","240732","237163","238200","237069","237163","162106","New experiment","yes","1024"
"<opensesame_plugins.lsl_start.liblsl.LSL_session object at 0x0000015122F53C88>","1","black","[0.0, 0.0]","legacy","0","uniform","55","0","1","0","0","55","55","55","55","1","NA","55","NA","0","1","0","55","55","55","55","55","NA","55","55","1","Wed Nov 17 22:20:07 2021","-7.5","The main experiment item","yes","experiment.osexp","C:/Users/elus/Demant/+Team OMEXP - Article/ISAAR 2021/Data/experiments","no","mono","no","18","no","white","no","Next","1000","no","768","19","1","19","C:/Users/elus/Documents/RecordingLSL_maybefinal/subject-8.csv","5","[<opensesame_plugins.lsl_start.liblsl.LSL_session object at 0x0000015122F53C88>]","Kafkaesque Koffka","3.2.7","2","0","2","1024","2","48000","-16","experiment","0","8","even","NA","11428","161105","NA","5560","245397","242389","243395","244396","NA","NA","245397","NA","NA","161106","9428","241368","242890","243896","244897","241328","242368","241234","241328","162106","New experiment","yes","1024"
"<opensesame_plugins.lsl_start.liblsl.LSL_session object at 0x0000015122F53C88>","0","black","[0.0, 0.0]","legacy","0","uniform","56","0","1","0","0","56","56","56","56","1","NA","56","NA","0","1","0","56","56","56","56","56","NA","56","56","1","Wed Nov 17 22:20:07 2021","-7.5","The main experiment item","yes","experiment.osexp","C:/Users/elus/Demant/+Team OMEXP - Article/ISAAR 2021/Data/experiments","no","mono","no","18","no","white","no","Next","1000","no","768","20","1","20","C:/Users/elus/Documents/RecordingLSL_maybefinal/subject-8.csv","5","[<opensesame_plugins.lsl_start.liblsl.LSL_session object at 0x0000015122F53C88>]","Kafkaesque Koffka","3.2.7","3","0","2","1024","2","48000","-16","experiment","0","8","even","NA","11428","161105","NA","5560","249562","246553","247559","248561","NA","NA","249562","NA","NA","161106","9428","245530","247054","248060","249062","245493","246530","245399","245493","162106","New experiment","yes","1024"
"<opensesame_plugins.lsl_start.liblsl.LSL_session object at 0x0000015122F53C88>","1","black","[0.0, 0.0]","legacy","0","uniform","57","0","1","0","0","57","57","57","57","1","NA","57","NA","0","1","0","57","57","57","57","57","NA","57","57","1","Wed Nov 17 22:20:07 2021","-7","The main experiment item","yes","experiment.osexp","C:/Users/elus/Demant/+Team OMEXP - Article/ISAAR 2021/Data/experiments","no","mono","no","18","no","white","no","Next","1000","no","768","21","1","21","C:/Users/elus/Documents/RecordingLSL_maybefinal/subject-8.csv","5","[<opensesame_plugins.lsl_start.liblsl.LSL_session object at 0x0000015122F53C88>]","Kafkaesque Koffka","3.2.7","1","0","2","1024","2","48000","-16","experiment","0","8","even","NA","11428","161105","NA","5560","253725","250714","251721","252723","NA","NA","253725","NA","NA","161106","9428","249698","251215","252222","253224","249661","250698","249566","249661","162106","New experiment","yes","1024"
"<opensesame_plugins.lsl_start.liblsl.LSL_session object at 0x0000015122F53C88>","1","black","[0.0, 0.0]","legacy","0","uniform","58","0","1","0","0","58","58","58","58","1","NA","58","NA","0","1","0","58","58","58","58","58","NA","58","58","1","Wed Nov 17 22:20:07 2021","-7","The main experiment item","yes","experiment.osexp","C:/Users/elus/Demant/+Team OMEXP - Article/ISAAR 2021/Data/experiments","no","mono","no","18","no","white","no","Next","1000","no","768","22","1","22","C:/Users/elus/Documents/RecordingLSL_maybefinal/subject-8.csv","5","[<opensesame_plugins.lsl_start.liblsl.LSL_session object at 0x0000015122F53C88>]","Kafkaesque Koffka","3.2.7","2","0","2","1024","2","48000","-16","experiment","0","8","even","NA","11428","161105","NA","5560","257892","254883","255889","256891","NA","NA","257892","NA","NA","161106","9428","253862","255384","256390","257392","253824","254862","253727","253824","162106","New experiment","yes","1024"
"<opensesame_plugins.lsl_start.liblsl.LSL_session object at 0x0000015122F53C88>","1","black","[0.0, 0.0]","legacy","0","uniform","59","0","1","0","0","59","59","59","59","1","NA","59","NA","0","1","0","59","59","59","59","59","NA","59","59","1","Wed Nov 17 22:20:07 2021","-7","The main experiment item","yes","experiment.osexp","C:/Users/elus/Demant/+Team OMEXP - Article/ISAAR 2021/Data/experiments","no","mono","no","18","no","white","no","Next","1000","no","768","23","1","23","C:/Users/elus/Documents/RecordingLSL_maybefinal/subject-8.csv","5","[<opensesame_plugins.lsl_start.liblsl.LSL_session object at 0x0000015122F53C88>]","Kafkaesque Koffka","3.2.7","3","0","2","1024","2","48000","-16","experiment","0","8","even","NA","11428","161105","NA","5560","262053","259048","260050","261052","NA","NA","262053","NA","NA","161106","9428","258029","259549","260551","261553","257991","259029","257894","257991","162106","New experiment","yes","1024"
"<opensesame_plugins.lsl_start.liblsl.LSL_session object at 0x0000015122F53C88>","1","black","[0.0, 0.0]","legacy","0","uniform","60","0","1","0","0","60","60","60","60","1","NA","60","NA","0","1","0","60","60","60","60","60","NA","60","60","1","Wed Nov 17 22:20:07 2021","-7.5","The main experiment item","yes","experiment.osexp","C:/Users/elus/Demant/+Team OMEXP - Article/ISAAR 2021/Data/experiments","no","mono","no","18","no","white","no","Next","1000","no","768","24","1","24","C:/Users/elus/Documents/RecordingLSL_maybefinal/subject-8.csv","5","[<opensesame_plugins.lsl_start.liblsl.LSL_session object at 0x0000015122F53C88>]","Kafkaesque Koffka","3.2.7","1","0","2","1024","2","48000","-16","experiment","0","8","even","NA","11428","161105","NA","5560","266219","263204","264215","265218","NA","NA","266219","NA","NA","161106","9428","262187","263705","264716","265719","262149","263187","262056","262149","162106","New experiment","yes","1024"
"<opensesame_plugins.lsl_start.liblsl.LSL_session object at 0x0000015122F53C88>","1","black","[0.0, 0.0]","legacy","0","uniform","61","0","1","0","0","61","61","61","61","1","NA","61","NA","0","1","0","61","61","61","61","61","NA","61","61","1","Wed Nov 17 22:20:07 2021","-7.5","The main experiment item","yes","experiment.osexp","C:/Users/elus/Demant/+Team OMEXP - Article/ISAAR 2021/Data/experiments","no","mono","no","18","no","white","no","Next","1000","no","768","25","1","25","C:/Users/elus/Documents/RecordingLSL_maybefinal/subject-8.csv","5","[<opensesame_plugins.lsl_start.liblsl.LSL_session object at 0x0000015122F53C88>]","Kafkaesque Koffka","3.2.7","2","0","2","1024","2","48000","-16","experiment","0","8","even","NA","11428","161105","NA","5560","270491","267486","268488","269490","NA","NA","270491","NA","NA","161106","9428","266475","267987","268989","269991","266324","267475","266221","266324","162106","New experiment","yes","1024"
"<opensesame_plugins.lsl_start.liblsl.LSL_session object at 0x0000015122F53C88>","1","black","[0.0, 0.0]","legacy","0","uniform","62","0","1","0","0","62","62","62","62","1","NA","62","NA","0","1","0","62","62","62","62","62","NA","62","62","1","Wed Nov 17 22:20:07 2021","-7.5","The main experiment item","yes","experiment.osexp","C:/Users/elus/Demant/+Team OMEXP - Article/ISAAR 2021/Data/experiments","no","mono","no","18","no","white","no","Next","1000","no","768","26","1","26","C:/Users/elus/Documents/RecordingLSL_maybefinal/subject-8.csv","5","[<opensesame_plugins.lsl_start.liblsl.LSL_session object at 0x0000015122F53C88>]","Kafkaesque Koffka","3.2.7","3","0","2","1024","2","48000","-16","experiment","0","8","even","NA","11428","161105","NA","5560","274621","271617","272619","273620","NA","NA","274621","NA","NA","161106","9428","270604","272118","273119","274121","270573","271604","270493","270573","162106","New experiment","yes","1024"
"<opensesame_plugins.lsl_start.liblsl.LSL_session object at 0x0000015122F53C88>","1","black","[0.0, 0.0]","legacy","0","uniform","63","0","1","0","0","63","63","63","63","1","NA","63","NA","0","1","0","63","63","63","63","63","NA","63","63","1","Wed Nov 17 22:20:07 2021","-8","The main experiment item","yes","experiment.osexp","C:/Users/elus/Demant/+Team OMEXP - Article/ISAAR 2021/Data/experiments","no","mono","no","18","no","white","no","Next","1000","no","768","27","1","27","C:/Users/elus/Documents/RecordingLSL_maybefinal/subject-8.csv","5","[<opensesame_plugins.lsl_start.liblsl.LSL_session object at 0x0000015122F53C88>]","Kafkaesque Koffka","3.2.7","1","0","2","1024","2","48000","-16","experiment","0","8","even","NA","11428","161105","NA","5560","278741","275736","276738","277740","NA","NA","278741","NA","NA","161106","9428","274728","276237","277239","278241","274699","275728","274623","274699","162106","New experiment","yes","1024"
"<opensesame_plugins.lsl_start.liblsl.LSL_session object at 0x0000015122F53C88>","0","black","[0.0, 0.0]","legacy","0","uniform","64","0","1","0","0","64","64","64","64","1","NA","64","NA","0","1","0","64","64","64","64","64","NA","64","64","1","Wed Nov 17 22:20:07 2021","-8","The main experiment item","yes","experiment.osexp","C:/Users/elus/Demant/+Team OMEXP - Article/ISAAR 2021/Data/experiments","no","mono","no","18","no","white","no","Next","1000","no","768","28","1","28","C:/Users/elus/Documents/RecordingLSL_maybefinal/subject-8.csv","5","[<opensesame_plugins.lsl_start.liblsl.LSL_session object at 0x0000015122F53C88>]","Kafkaesque Koffka","3.2.7","2","0","2","1024","2","48000","-16","experiment","0","8","even","NA","11428","161105","NA","5560","282871","279866","280868","281870","NA","NA","282871","NA","NA","161106","9428","278850","280367","281369","282371","278825","279850","278743","278825","162106","New experiment","yes","1024"
"<opensesame_plugins.lsl_start.liblsl.LSL_session object at 0x0000015122F53C88>","1","black","[0.0, 0.0]","legacy","0","uniform","65","0","1","0","0","65","65","65","65","1","NA","65","NA","0","1","0","65","65","65","65","65","NA","65","65","1","Wed Nov 17 22:20:07 2021","-7.5","The main experiment item","yes","experiment.osexp","C:/Users/elus/Demant/+Team OMEXP - Article/ISAAR 2021/Data/experiments","no","mono","no","18","no","white","no","Next","1000","no","768","29","1","29","C:/Users/elus/Documents/RecordingLSL_maybefinal/subject-8.csv","5","[<opensesame_plugins.lsl_start.liblsl.LSL_session object at 0x0000015122F53C88>]","Kafkaesque Koffka","3.2.7","3","0","2","1024","2","48000","-16","experiment","0","8","even","NA","11428","161105","NA","5560","286991","283986","284988","285990","NA","NA","286991","NA","NA","161106","9428","282976","284487","285489","286491","282950","283976","282873","282950","162106","New experiment","yes","1024"
"<opensesame_plugins.lsl_start.liblsl.LSL_session object at 0x0000015122F53C88>","1","black","[0.0, 0.0]","legacy","0","uniform","66","0","1","0","0","66","66","66","66","1","NA","66","NA","0","1","0","66","66","66","66","66","NA","66","66","1","Wed Nov 17 22:20:07 2021","-7.5","The main experiment item","yes","experiment.osexp","C:/Users/elus/Demant/+Team OMEXP - Article/ISAAR 2021/Data/experiments","no","mono","no","18","no","white","no","Next","1000","no","768","30","1","30","C:/Users/elus/Documents/RecordingLSL_maybefinal/subject-8.csv","5","[<opensesame_plugins.lsl_start.liblsl.LSL_session object at 0x0000015122F53C88>]","Kafkaesque Koffka","3.2.7","1","0","2","1024","2","48000","-16","experiment","0","8","even","NA","11428","161105","NA","5560","291113","288108","289110","290112","NA","NA","291113","NA","NA","161106","9428","287099","288609","289611","290613","287072","288099","286993","287072","162106","New experiment","yes","1024"
"<opensesame_plugins.lsl_start.liblsl.LSL_session object at 0x0000015122F53C88>","1","black","[0.0, 0.0]","legacy","0","uniform","67","0","1","0","0","67","67","67","67","1","NA","67","NA","0","1","0","67","67","67","67","67","NA","67","67","1","Wed Nov 17 22:20:07 2021","-7.5","The main experiment item","yes","experiment.osexp","C:/Users/elus/Demant/+Team OMEXP - Article/ISAAR 2021/Data/experiments","no","mono","no","18","no","white","no","Next","1000","no","768","31","1","31","C:/Users/elus/Documents/RecordingLSL_maybefinal/subject-8.csv","5","[<opensesame_plugins.lsl_start.liblsl.LSL_session object at 0x0000015122F53C88>]","Kafkaesque Koffka","3.2.7","2","0","2","1024","2","48000","-16","experiment","0","8","even","NA","11428","161105","NA","5560","295231","292226","293228","294230","NA","NA","295231","NA","NA","161106","9428","291217","292727","293729","294731","291192","292217","291115","291192","162106","New experiment","yes","1024"
"<opensesame_plugins.lsl_start.liblsl.LSL_session object at 0x0000015122F53C88>","1","black","[0.0, 0.0]","legacy","0","uniform","68","0","1","0","0","68","68","68","68","1","NA","68","NA","0","1","0","68","68","68","68","68","NA","68","68","1","Wed Nov 17 22:20:07 2021","-8","The main experiment item","yes","experiment.osexp","C:/Users/elus/Demant/+Team OMEXP - Article/ISAAR 2021/Data/experiments","no","mono","no","18","no","white","no","Next","1000","no","768","32","1","32","C:/Users/elus/Documents/RecordingLSL_maybefinal/subject-8.csv","5","[<opensesame_plugins.lsl_start.liblsl.LSL_session object at 0x0000015122F53C88>]","Kafkaesque Koffka","3.2.7","3","0","2","1024","2","48000","-16","experiment","0","8","even","NA","11428","161105","NA","5560","299362","296357","297359","298361","NA","NA","299362","NA","NA","161106","9428","295341","296858","297860","298862","295312","296341","295233","295312","162106","New experiment","yes","1024"
"<opensesame_plugins.lsl_start.liblsl.LSL_session object at 0x0000015122F53C88>","0","black","[0.0, 0.0]","legacy","0","uniform","69","0","1","0","0","69","69","69","69","1","NA","69","NA","0","1","0","69","69","69","69","69","NA","69","69","1","Wed Nov 17 22:20:07 2021","-8","The main experiment item","yes","experiment.osexp","C:/Users/elus/Demant/+Team OMEXP - Article/ISAAR 2021/Data/experiments","no","mono","no","18","no","white","no","Next","1000","no","768","33","1","33","C:/Users/elus/Documents/RecordingLSL_maybefinal/subject-8.csv","5","[<opensesame_plugins.lsl_start.liblsl.LSL_session object at 0x0000015122F53C88>]","Kafkaesque Koffka","3.2.7","1","0","2","1024","2","48000","-16","experiment","0","8","even","NA","11428","161105","NA","5560","303511","300506","301508","302510","NA","NA","303511","NA","NA","161106","9428","299491","301007","302009","303011","299462","300491","299383","299462","162106","New experiment","yes","1024"
"<opensesame_plugins.lsl_start.liblsl.LSL_session object at 0x0000015122F53C88>","1","black","[0.0, 0.0]","legacy","0","uniform","70","0","1","0","0","70","70","70","70","1","NA","70","NA","0","1","0","70","70","70","70","70","NA","70","70","1","Wed Nov 17 22:20:07 2021","-7.5","The main experiment item","yes","experiment.osexp","C:/Users/elus/Demant/+Team OMEXP - Article/ISAAR 2021/Data/experiments","no","mono","no","18","no","white","no","Next","1000","no","768","34","1","34","C:/Users/elus/Documents/RecordingLSL_maybefinal/subject-8.csv","5","[<opensesame_plugins.lsl_start.liblsl.LSL_session object at 0x0000015122F53C88>]","Kafkaesque Koffka","3.2.7","2","0","2","1024","2","48000","-16","experiment","0","8","even","NA","11428","161105","NA","5560","307642","304637","305639","306641","NA","NA","307642","NA","NA","161106","9428","303620","305138","306140","307142","303594","304620","303516","303594","162106","New experiment","yes","1024"
"<opensesame_plugins.lsl_start.liblsl.LSL_session object at 0x0000015122F53C88>","1","black","[0.0, 0.0]","legacy","0","uniform","71","0","1","0","0","71","71","71","71","1","NA","71","NA","0","1","0","71","71","71","71","71","NA","71","71","1","Wed Nov 17 22:20:07 2021","-7.5","The main experiment item","yes","experiment.osexp","C:/Users/elus/Demant/+Team OMEXP - Article/ISAAR 2021/Data/experiments","no","mono","no","18","no","white","no","Next","1000","no","768","35","1","35","C:/Users/elus/Documents/RecordingLSL_maybefinal/subject-8.csv","5","[<opensesame_plugins.lsl_start.liblsl.LSL_session object at 0x0000015122F53C88>]","Kafkaesque Koffka","3.2.7","3","0","2","1024","2","48000","-16","experiment","0","8","even","NA","11428","161105","NA","5560","311761","308756","309758","310760","NA","NA","311761","NA","NA","161106","9428","307748","309257","310259","311261","307722","308748","307644","307722","162106","New experiment","yes","1024"
"<opensesame_plugins.lsl_start.liblsl.LSL_session object at 0x0000015122F53C88>","1","black","[0.0, 0.0]","legacy","0","uniform","72","0","2","0","0","72","72","72","72","2","NA","72","NA","0","2","0","72","72","72","72","72","NA","72","72","2","Wed Nov 17 22:20:07 2021","-6","The main experiment item","yes","experiment.osexp","C:/Users/elus/Demant/+Team OMEXP - Article/ISAAR 2021/Data/experiments","no","mono","no","18","no","white","no","Next","400","no","768","0","2","0","C:/Users/elus/Documents/RecordingLSL_maybefinal/subject-8.csv","10","[<opensesame_plugins.lsl_start.liblsl.LSL_session object at 0x0000015122F53C88>]","Kafkaesque Koffka","3.2.7","1","0","2","1024","2","48000","-16","experiment","0","8","even","NA","11428","311855","NA","5560","316941","313936","314938","315940","NA","NA","316941","NA","NA","311857","9428","312920","314437","315439","316441","312900","313920","311765","312900","312857","New experiment","yes","1024"
"<opensesame_plugins.lsl_start.liblsl.LSL_session object at 0x0000015122F53C88>","1","black","[0.0, 0.0]","legacy","0","uniform","73","0","2","0","0","73","73","73","73","2","NA","73","NA","0","2","0","73","73","73","73","73","NA","73","73","2","Wed Nov 17 22:20:07 2021","-6","The main experiment item","yes","experiment.osexp","C:/Users/elus/Demant/+Team OMEXP - Article/ISAAR 2021/Data/experiments","no","mono","no","18","no","white","no","Next","400","no","768","1","2","1","C:/Users/elus/Documents/RecordingLSL_maybefinal/subject-8.csv","10","[<opensesame_plugins.lsl_start.liblsl.LSL_session object at 0x0000015122F53C88>]","Kafkaesque Koffka","3.2.7","2","0","2","1024","2","48000","-16","experiment","0","8","even","NA","11428","311855","NA","5560","321062","318057","319059","320061","NA","NA","321062","NA","NA","311857","9428","317046","318558","319560","320562","317022","318047","316943","317021","312857","New experiment","yes","1024"
"<opensesame_plugins.lsl_start.liblsl.LSL_session object at 0x0000015122F53C88>","1","black","[0.0, 0.0]","legacy","0","uniform","74","0","2","0","0","74","74","74","74","2","NA","74","NA","0","2","0","74","74","74","74","74","NA","74","74","2","Wed Nov 17 22:20:07 2021","-6","The main experiment item","yes","experiment.osexp","C:/Users/elus/Demant/+Team OMEXP - Article/ISAAR 2021/Data/experiments","no","mono","no","18","no","white","no","Next","400","no","768","2","2","2","C:/Users/elus/Documents/RecordingLSL_maybefinal/subject-8.csv","10","[<opensesame_plugins.lsl_start.liblsl.LSL_session object at 0x0000015122F53C88>]","Kafkaesque Koffka","3.2.7","3","0","2","1024","2","48000","-16","experiment","0","8","even","NA","11428","311855","NA","5560","325191","322186","323188","324190","NA","NA","325191","NA","NA","311857","9428","321170","322687","323689","324691","321140","322170","321064","321140","312857","New experiment","yes","1024"
"<opensesame_plugins.lsl_start.liblsl.LSL_session object at 0x0000015122F53C88>","0","black","[0.0, 0.0]","legacy","0","uniform","75","0","2","0","0","75","75","75","75","2","NA","75","NA","0","2","0","75","75","75","75","75","NA","75","75","2","Wed Nov 17 22:20:07 2021","-7","The main experiment item","yes","experiment.osexp","C:/Users/elus/Demant/+Team OMEXP - Article/ISAAR 2021/Data/experiments","no","mono","no","18","no","white","no","Next","400","no","768","3","2","3","C:/Users/elus/Documents/RecordingLSL_maybefinal/subject-8.csv","10","[<opensesame_plugins.lsl_start.liblsl.LSL_session object at 0x0000015122F53C88>]","Kafkaesque Koffka","3.2.7","1","0","2","1024","2","48000","-16","experiment","0","8","even","NA","11428","311855","NA","5560","329333","326328","327330","328332","NA","NA","329333","NA","NA","311857","9428","325313","326829","327831","328833","325282","326313","325193","325282","312857","New experiment","yes","1024"
"<opensesame_plugins.lsl_start.liblsl.LSL_session object at 0x0000015122F53C88>","1","black","[0.0, 0.0]","legacy","0","uniform","76","0","2","0","0","76","76","76","76","2","NA","76","NA","0","2","0","76","76","76","76","76","NA","76","76","2","Wed Nov 17 22:20:07 2021","-6.5","The main experiment item","yes","experiment.osexp","C:/Users/elus/Demant/+Team OMEXP - Article/ISAAR 2021/Data/experiments","no","mono","no","18","no","white","no","Next","400","no","768","4","2","4","C:/Users/elus/Documents/RecordingLSL_maybefinal/subject-8.csv","10","[<opensesame_plugins.lsl_start.liblsl.LSL_session object at 0x0000015122F53C88>]","Kafkaesque Koffka","3.2.7","2","0","2","1024","2","48000","-16","experiment","0","8","even","NA","11428","311855","NA","5560","333471","330466","331468","332470","NA","NA","333471","NA","NA","311857","9428","329457","330967","331969","332971","329428","330457","329339","329428","312857","New experiment","yes","1024"
"<opensesame_plugins.lsl_start.liblsl.LSL_session object at 0x0000015122F53C88>","1","black","[0.0, 0.0]","legacy","0","uniform","77","0","2","0","0","77","77","77","77","2","NA","77","NA","0","2","0","77","77","77","77","77","NA","77","77","2","Wed Nov 17 22:20:07 2021","-6.5","The main experiment item","yes","experiment.osexp","C:/Users/elus/Demant/+Team OMEXP - Article/ISAAR 2021/Data/experiments","no","mono","no","18","no","white","no","Next","400","no","768","5","2","5","C:/Users/elus/Documents/RecordingLSL_maybefinal/subject-8.csv","10","[<opensesame_plugins.lsl_start.liblsl.LSL_session object at 0x0000015122F53C88>]","Kafkaesque Koffka","3.2.7","3","0","2","1024","2","48000","-16","experiment","0","8","even","NA","11428","311855","NA","5560","337591","334586","335588","336590","NA","NA","337591","NA","NA","311857","9428","333576","335087","336089","337091","333550","334576","333473","333550","312857","New experiment","yes","1024"
"<opensesame_plugins.lsl_start.liblsl.LSL_session object at 0x0000015122F53C88>","1","black","[0.0, 0.0]","legacy","0","uniform","78","0","2","0","0","78","78","78","78","2","NA","78","NA","0","2","0","78","78","78","78","78","NA","78","78","2","Wed Nov 17 22:20:07 2021","-6.5","The main experiment item","yes","experiment.osexp","C:/Users/elus/Demant/+Team OMEXP - Article/ISAAR 2021/Data/experiments","no","mono","no","18","no","white","no","Next","400","no","768","6","2","6","C:/Users/elus/Documents/RecordingLSL_maybefinal/subject-8.csv","10","[<opensesame_plugins.lsl_start.liblsl.LSL_session object at 0x0000015122F53C88>]","Kafkaesque Koffka","3.2.7","1","0","2","1024","2","48000","-16","experiment","0","8","even","NA","11428","311855","NA","5560","341722","338717","339719","340721","NA","NA","341722","NA","NA","311857","9428","337697","339218","340220","341222","337670","338698","337593","337670","312857","New experiment","yes","1024"
"<opensesame_plugins.lsl_start.liblsl.LSL_session object at 0x0000015122F53C88>","1","black","[0.0, 0.0]","legacy","0","uniform","79","0","2","0","0","79","79","79","79","2","NA","79","NA","0","2","0","79","79","79","79","79","NA","79","79","2","Wed Nov 17 22:20:07 2021","-7","The main experiment item","yes","experiment.osexp","C:/Users/elus/Demant/+Team OMEXP - Article/ISAAR 2021/Data/experiments","no","mono","no","18","no","white","no","Next","400","no","768","7","2","7","C:/Users/elus/Documents/RecordingLSL_maybefinal/subject-8.csv","10","[<opensesame_plugins.lsl_start.liblsl.LSL_session object at 0x0000015122F53C88>]","Kafkaesque Koffka","3.2.7","2","0","2","1024","2","48000","-16","experiment","0","8","even","NA","11428","311855","NA","5560","345843","342838","343840","344842","NA","NA","345843","NA","NA","311857","9428","341827","343339","344341","345343","341802","342827","341724","341802","312857","New experiment","yes","1024"
"<opensesame_plugins.lsl_start.liblsl.LSL_session object at 0x0000015122F53C88>","1","black","[0.0, 0.0]","legacy","0","uniform","80","0","2","0","0","80","80","80","80","2","NA","80","NA","0","2","0","80","80","80","80","80","NA","80","80","2","Wed Nov 17 22:20:07 2021","-7","The main experiment item","yes","experiment.osexp","C:/Users/elus/Demant/+Team OMEXP - Article/ISAAR 2021/Data/experiments","no","mono","no","18","no","white","no","Next","400","no","768","8","2","8","C:/Users/elus/Documents/RecordingLSL_maybefinal/subject-8.csv","10","[<opensesame_plugins.lsl_start.liblsl.LSL_session object at 0x0000015122F53C88>]","Kafkaesque Koffka","3.2.7","3","0","2","1024","2","48000","-16","experiment","0","8","even","NA","11428","311855","NA","5560","349972","346967","347969","348971","NA","NA","349972","NA","NA","311857","9428","345951","347468","348470","349472","345924","346951","345847","345924","312857","New experiment","yes","1024"
"<opensesame_plugins.lsl_start.liblsl.LSL_session object at 0x0000015122F53C88>","1","black","[0.0, 0.0]","legacy","0","uniform","81","0","2","0","0","81","81","81","81","2","NA","81","NA","0","2","0","81","81","81","81","81","NA","81","81","2","Wed Nov 17 22:20:07 2021","-7","The main experiment item","yes","experiment.osexp","C:/Users/elus/Demant/+Team OMEXP - Article/ISAAR 2021/Data/experiments","no","mono","no","18","no","white","no","Next","400","no","768","9","2","9","C:/Users/elus/Documents/RecordingLSL_maybefinal/subject-8.csv","10","[<opensesame_plugins.lsl_start.liblsl.LSL_session object at 0x0000015122F53C88>]","Kafkaesque Koffka","3.2.7","1","0","2","1024","2","48000","-16","experiment","0","8","even","NA","11428","311855","NA","5560","354102","351096","352099","353101","NA","NA","354102","NA","NA","311857","9428","350082","351597","352600","353602","350052","351082","349974","350052","312857","New experiment","yes","1024"
"<opensesame_plugins.lsl_start.liblsl.LSL_session object at 0x0000015122F53C88>","1","black","[0.0, 0.0]","legacy","0","uniform","82","0","2","0","0","82","82","82","82","2","NA","82","NA","0","2","0","82","82","82","82","82","NA","82","82","2","Wed Nov 17 22:20:07 2021","-7.5","The main experiment item","yes","experiment.osexp","C:/Users/elus/Demant/+Team OMEXP - Article/ISAAR 2021/Data/experiments","no","mono","no","18","no","white","no","Next","400","no","768","10","2","10","C:/Users/elus/Documents/RecordingLSL_maybefinal/subject-8.csv","10","[<opensesame_plugins.lsl_start.liblsl.LSL_session object at 0x0000015122F53C88>]","Kafkaesque Koffka","3.2.7","2","0","2","1024","2","48000","-16","experiment","0","8","even","NA","11428","311855","NA","5560","358223","355218","356220","357222","NA","NA","358223","NA","NA","311857","9428","354209","355719","356721","357723","354182","355209","354104","354182","312857","New experiment","yes","1024"
"<opensesame_plugins.lsl_start.liblsl.LSL_session object at 0x0000015122F53C88>","1","black","[0.0, 0.0]","legacy","0","uniform","83","0","2","0","0","83","83","83","83","2","NA","83","NA","0","2","0","83","83","83","83","83","NA","83","83","2","Wed Nov 17 22:20:07 2021","-7.5","The main experiment item","yes","experiment.osexp","C:/Users/elus/Demant/+Team OMEXP - Article/ISAAR 2021/Data/experiments","no","mono","no","18","no","white","no","Next","400","no","768","11","2","11","C:/Users/elus/Documents/RecordingLSL_maybefinal/subject-8.csv","10","[<opensesame_plugins.lsl_start.liblsl.LSL_session object at 0x0000015122F53C88>]","Kafkaesque Koffka","3.2.7","3","0","2","1024","2","48000","-16","experiment","0","8","even","NA","11428","311855","NA","5560","362351","359346","360348","361350","NA","NA","362351","NA","NA","311857","9428","358331","359847","360849","361851","358302","359331","358225","358302","312857","New experiment","yes","1024"
"<opensesame_plugins.lsl_start.liblsl.LSL_session object at 0x0000015122F53C88>","1","black","[0.0, 0.0]","legacy","0","uniform","84","0","2","0","0","84","84","84","84","2","NA","84","NA","0","2","0","84","84","84","84","84","NA","84","84","2","Wed Nov 17 22:20:07 2021","-7.5","The main experiment item","yes","experiment.osexp","C:/Users/elus/Demant/+Team OMEXP - Article/ISAAR 2021/Data/experiments","no","mono","no","18","no","white","no","Next","400","no","768","12","2","12","C:/Users/elus/Documents/RecordingLSL_maybefinal/subject-8.csv","10","[<opensesame_plugins.lsl_start.liblsl.LSL_session object at 0x0000015122F53C88>]","Kafkaesque Koffka","3.2.7","1","0","2","1024","2","48000","-16","experiment","0","8","even","NA","11428","311855","NA","5560","366482","363476","364478","365481","NA","NA","366482","NA","NA","311857","9428","362461","363977","364979","365982","362435","363461","362357","362435","312857","New experiment","yes","1024"
"<opensesame_plugins.lsl_start.liblsl.LSL_session object at 0x0000015122F53C88>","1","black","[0.0, 0.0]","legacy","0","uniform","85","0","2","0","0","85","85","85","85","2","NA","85","NA","0","2","0","85","85","85","85","85","NA","85","85","2","Wed Nov 17 22:20:07 2021","-8","The main experiment item","yes","experiment.osexp","C:/Users/elus/Demant/+Team OMEXP - Article/ISAAR 2021/Data/experiments","no","mono","no","18","no","white","no","Next","400","no","768","13","2","13","C:/Users/elus/Documents/RecordingLSL_maybefinal/subject-8.csv","10","[<opensesame_plugins.lsl_start.liblsl.LSL_session object at 0x0000015122F53C88>]","Kafkaesque Koffka","3.2.7","2","0","2","1024","2","48000","-16","experiment","0","8","even","NA","11428","311855","NA","5560","370613","367608","368610","369612","NA","NA","370613","NA","NA","311857","9428","366591","368109","369111","370113","366563","367591","366484","366563","312857","New experiment","yes","1024"
"<opensesame_plugins.lsl_start.liblsl.LSL_session object at 0x0000015122F53C88>","0","black","[0.0, 0.0]","legacy","0","uniform","86","0","2","0","0","86","86","86","86","2","NA","86","NA","0","2","0","86","86","86","86","86","NA","86","86","2","Wed Nov 17 22:20:07 2021","-8","The main experiment item","yes","experiment.osexp","C:/Users/elus/Demant/+Team OMEXP - Article/ISAAR 2021/Data/experiments","no","mono","no","18","no","white","no","Next","400","no","768","14","2","14","C:/Users/elus/Documents/RecordingLSL_maybefinal/subject-8.csv","10","[<opensesame_plugins.lsl_start.liblsl.LSL_session object at 0x0000015122F53C88>]","Kafkaesque Koffka","3.2.7","3","0","2","1024","2","48000","-16","experiment","0","8","even","NA","11428","311855","NA","5560","374742","371736","372739","373741","NA","NA","374742","NA","NA","311857","9428","370724","372238","373240","374242","370696","371725","370618","370696","312857","New experiment","yes","1024"
"<opensesame_plugins.lsl_start.liblsl.LSL_session object at 0x0000015122F53C88>","1","black","[0.0, 0.0]","legacy","0","uniform","87","0","2","0","0","87","87","87","87","2","NA","87","NA","0","2","0","87","87","87","87","87","NA","87","87","2","Wed Nov 17 22:20:07 2021","-7.5","The main experiment item","yes","experiment.osexp","C:/Users/elus/Demant/+Team OMEXP - Article/ISAAR 2021/Data/experiments","no","mono","no","18","no","white","no","Next","400","no","768","15","2","15","C:/Users/elus/Documents/RecordingLSL_maybefinal/subject-8.csv","10","[<opensesame_plugins.lsl_start.liblsl.LSL_session object at 0x0000015122F53C88>]","Kafkaesque Koffka","3.2.7","1","0","2","1024","2","48000","-16","experiment","0","8","even","NA","11428","311855","NA","5560","378871","375866","376868","377870","NA","NA","378871","NA","NA","311857","9428","374850","376367","377369","378371","374820","375850","374744","374820","312857","New experiment","yes","1024"
"<opensesame_plugins.lsl_start.liblsl.LSL_session object at 0x0000015122F53C88>","1","black","[0.0, 0.0]","legacy","0","uniform","88","0","2","0","0","88","88","88","88","2","NA","88","NA","0","2","0","88","88","88","88","88","NA","88","88","2","Wed Nov 17 22:20:07 2021","-7.5","The main experiment item","yes","experiment.osexp","C:/Users/elus/Demant/+Team OMEXP - Article/ISAAR 2021/Data/experiments","no","mono","no","18","no","white","no","Next","400","no","768","16","2","16","C:/Users/elus/Documents/RecordingLSL_maybefinal/subject-8.csv","10","[<opensesame_plugins.lsl_start.liblsl.LSL_session object at 0x0000015122F53C88>]","Kafkaesque Koffka","3.2.7","2","0","2","1024","2","48000","-16","experiment","0","8","even","NA","11428","311855","NA","5560","383001","379996","380998","382000","NA","NA","383001","NA","NA","311857","9428","378980","380497","381499","382501","378952","379980","378873","378952","312857","New experiment","yes","1024"
"<opensesame_plugins.lsl_start.liblsl.LSL_session object at 0x0000015122F53C88>","1","black","[0.0, 0.0]","legacy","0","uniform","89","0","2","0","0","89","89","89","89","2","NA","89","NA","0","2","0","89","89","89","89","89","NA","89","89","2","Wed Nov 17 22:20:07 2021","-7.5","The main experiment item","yes","experiment.osexp","C:/Users/elus/Demant/+Team OMEXP - Article/ISAAR 2021/Data/experiments","no","mono","no","18","no","white","no","Next","400","no","768","17","2","17","C:/Users/elus/Documents/RecordingLSL_maybefinal/subject-8.csv","10","[<opensesame_plugins.lsl_start.liblsl.LSL_session object at 0x0000015122F53C88>]","Kafkaesque Koffka","3.2.7","3","0","2","1024","2","48000","-16","experiment","0","8","even","NA","11428","311855","NA","5560","387131","384126","385128","386130","NA","NA","387131","NA","NA","311857","9428","383114","384627","385629","386631","383086","384114","383007","383086","312857","New experiment","yes","1024"
"<opensesame_plugins.lsl_start.liblsl.LSL_session object at 0x0000015122F53C88>","1","black","[0.0, 0.0]","legacy","0","uniform","90","0","2","0","0","90","90","90","90","2","NA","90","NA","0","2","0","90","90","90","90","90","NA","90","90","2","Wed Nov 17 22:20:07 2021","-8","The main experiment item","yes","experiment.osexp","C:/Users/elus/Demant/+Team OMEXP - Article/ISAAR 2021/Data/experiments","no","mono","no","18","no","white","no","Next","400","no","768","18","2","18","C:/Users/elus/Documents/RecordingLSL_maybefinal/subject-8.csv","10","[<opensesame_plugins.lsl_start.liblsl.LSL_session object at 0x0000015122F53C88>]","Kafkaesque Koffka","3.2.7","1","0","2","1024","2","48000","-16","experiment","0","8","even","NA","11428","311855","NA","5560","391261","388256","389258","390260","NA","NA","391261","NA","NA","311857","9428","387238","388757","389759","390761","387211","388239","387133","387211","312857","New experiment","yes","1024"
"<opensesame_plugins.lsl_start.liblsl.LSL_session object at 0x0000015122F53C88>","0","black","[0.0, 0.0]","legacy","0","uniform","91","0","2","0","0","91","91","91","91","2","NA","91","NA","0","2","0","91","91","91","91","91","NA","91","91","2","Wed Nov 17 22:20:07 2021","-8","The main experiment item","yes","experiment.osexp","C:/Users/elus/Demant/+Team OMEXP - Article/ISAAR 2021/Data/experiments","no","mono","no","18","no","white","no","Next","400","no","768","19","2","19","C:/Users/elus/Documents/RecordingLSL_maybefinal/subject-8.csv","10","[<opensesame_plugins.lsl_start.liblsl.LSL_session object at 0x0000015122F53C88>]","Kafkaesque Koffka","3.2.7","2","0","2","1024","2","48000","-16","experiment","0","8","even","NA","11428","311855","NA","5560","395381","392376","393378","394380","NA","NA","395381","NA","NA","311857","9428","391366","392877","393879","394881","391340","392366","391263","391340","312857","New experiment","yes","1024"
"<opensesame_plugins.lsl_start.liblsl.LSL_session object at 0x0000015122F53C88>","1","black","[0.0, 0.0]","legacy","0","uniform","92","0","2","0","0","92","92","92","92","2","NA","92","NA","0","2","0","92","92","92","92","92","NA","92","92","2","Wed Nov 17 22:20:07 2021","-7.5","The main experiment item","yes","experiment.osexp","C:/Users/elus/Demant/+Team OMEXP - Article/ISAAR 2021/Data/experiments","no","mono","no","18","no","white","no","Next","400","no","768","20","2","20","C:/Users/elus/Documents/RecordingLSL_maybefinal/subject-8.csv","10","[<opensesame_plugins.lsl_start.liblsl.LSL_session object at 0x0000015122F53C88>]","Kafkaesque Koffka","3.2.7","3","0","2","1024","2","48000","-16","experiment","0","8","even","NA","11428","311855","NA","5560","399501","396496","397498","398500","NA","NA","399501","NA","NA","311857","9428","395487","396997","397999","399001","395459","396487","395383","395459","312857","New experiment","yes","1024"
"<opensesame_plugins.lsl_start.liblsl.LSL_session object at 0x0000015122F53C88>","1","black","[0.0, 0.0]","legacy","0","uniform","93","0","2","0","0","93","93","93","93","2","NA","93","NA","0","2","0","93","93","93","93","93","NA","93","93","2","Wed Nov 17 22:20:07 2021","-7.5","The main experiment item","yes","experiment.osexp","C:/Users/elus/Demant/+Team OMEXP - Article/ISAAR 2021/Data/experiments","no","mono","no","18","no","white","no","Next","400","no","768","21","2","21","C:/Users/elus/Documents/RecordingLSL_maybefinal/subject-8.csv","10","[<opensesame_plugins.lsl_start.liblsl.LSL_session object at 0x0000015122F53C88>]","Kafkaesque Koffka","3.2.7","1","0","2","1024","2","48000","-16","experiment","0","8","even","NA","11428","311855","NA","5560","403631","400626","401628","402630","NA","NA","403631","NA","NA","311857","9428","399611","401127","402129","403131","399585","400611","399503","399585","312857","New experiment","yes","1024"
"<opensesame_plugins.lsl_start.liblsl.LSL_session object at 0x0000015122F53C88>","1","black","[0.0, 0.0]","legacy","0","uniform","94","0","2","0","0","94","94","94","94","2","NA","94","NA","0","2","0","94","94","94","94","94","NA","94","94","2","Wed Nov 17 22:20:07 2021","-7.5","The main experiment item","yes","experiment.osexp","C:/Users/elus/Demant/+Team OMEXP - Article/ISAAR 2021/Data/experiments","no","mono","no","18","no","white","no","Next","400","no","768","22","2","22","C:/Users/elus/Documents/RecordingLSL_maybefinal/subject-8.csv","10","[<opensesame_plugins.lsl_start.liblsl.LSL_session object at 0x0000015122F53C88>]","Kafkaesque Koffka","3.2.7","2","0","2","1024","2","48000","-16","experiment","0","8","even","NA","11428","311855","NA","5560","407760","404756","405758","406759","NA","NA","407760","NA","NA","311857","9428","403738","405257","406258","407260","403712","404738","403635","403712","312857","New experiment","yes","1024"
"<opensesame_plugins.lsl_start.liblsl.LSL_session object at 0x0000015122F53C88>","0","black","[0.0, 0.0]","legacy","0","uniform","95","0","2","0","0","95","95","95","95","2","NA","95","NA","0","2","0","95","95","95","95","95","NA","95","95","2","Wed Nov 17 22:20:07 2021","-8","The main experiment item","yes","experiment.osexp","C:/Users/elus/Demant/+Team OMEXP - Article/ISAAR 2021/Data/experiments","no","mono","no","18","no","white","no","Next","400","no","768","23","2","23","C:/Users/elus/Documents/RecordingLSL_maybefinal/subject-8.csv","10","[<opensesame_plugins.lsl_start.liblsl.LSL_session object at 0x0000015122F53C88>]","Kafkaesque Koffka","3.2.7","3","0","2","1024","2","48000","-16","experiment","0","8","even","NA","11428","311855","NA","5560","411881","408876","409878","410880","NA","NA","411881","NA","NA","311857","9428","407867","409377","410379","411381","407840","408867","407762","407840","312857","New experiment","yes","1024"
"<opensesame_plugins.lsl_start.liblsl.LSL_session object at 0x0000015122F53C88>","1","black","[0.0, 0.0]","legacy","0","uniform","96","0","2","0","0","96","96","96","96","2","NA","96","NA","0","2","0","96","96","96","96","96","NA","96","96","2","Wed Nov 17 22:20:07 2021","-7.5","The main experiment item","yes","experiment.osexp","C:/Users/elus/Demant/+Team OMEXP - Article/ISAAR 2021/Data/experiments","no","mono","no","18","no","white","no","Next","400","no","768","24","2","24","C:/Users/elus/Documents/RecordingLSL_maybefinal/subject-8.csv","10","[<opensesame_plugins.lsl_start.liblsl.LSL_session object at 0x0000015122F53C88>]","Kafkaesque Koffka","3.2.7","1","0","2","1024","2","48000","-16","experiment","0","8","even","NA","11428","311855","NA","5560","416003","412998","414000","415002","NA","NA","416003","NA","NA","311857","9428","411989","413499","414501","415503","411961","412989","411883","411961","312857","New experiment","yes","1024"
"<opensesame_plugins.lsl_start.liblsl.LSL_session object at 0x0000015122F53C88>","0","black","[0.0, 0.0]","legacy","0","uniform","97","0","2","0","0","97","97","97","97","2","NA","97","NA","0","2","0","97","97","97","97","97","NA","97","97","2","Wed Nov 17 22:20:07 2021","-7.5","The main experiment item","yes","experiment.osexp","C:/Users/elus/Demant/+Team OMEXP - Article/ISAAR 2021/Data/experiments","no","mono","no","18","no","white","no","Next","400","no","768","25","2","25","C:/Users/elus/Documents/RecordingLSL_maybefinal/subject-8.csv","10","[<opensesame_plugins.lsl_start.liblsl.LSL_session object at 0x0000015122F53C88>]","Kafkaesque Koffka","3.2.7","2","0","2","1024","2","48000","-16","experiment","0","8","even","NA","11428","311855","NA","5560","420121","417116","418118","419120","NA","NA","420121","NA","NA","311857","9428","416106","417617","418619","419621","416081","417106","416005","416081","312857","New experiment","yes","1024"
"<opensesame_plugins.lsl_start.liblsl.LSL_session object at 0x0000015122F53C88>","0","black","[0.0, 0.0]","legacy","0","uniform","98","0","2","0","0","98","98","98","98","2","NA","98","NA","0","2","0","98","98","98","98","98","NA","98","98","2","Wed Nov 17 22:20:07 2021","-7","The main experiment item","yes","experiment.osexp","C:/Users/elus/Demant/+Team OMEXP - Article/ISAAR 2021/Data/experiments","no","mono","no","18","no","white","no","Next","400","no","768","26","2","26","C:/Users/elus/Documents/RecordingLSL_maybefinal/subject-8.csv","10","[<opensesame_plugins.lsl_start.liblsl.LSL_session object at 0x0000015122F53C88>]","Kafkaesque Koffka","3.2.7","3","0","2","1024","2","48000","-16","experiment","0","8","even","NA","11428","311855","NA","5560","424257","421237","422254","423256","NA","NA","424257","NA","NA","311857","9428","420226","421753","422755","423757","420199","421226","420123","420199","312857","New experiment","yes","1024"
"<opensesame_plugins.lsl_start.liblsl.LSL_session object at 0x0000015122F53C88>","1","black","[0.0, 0.0]","legacy","0","uniform","99","0","2","0","0","99","99","99","99","2","NA","99","NA","0","2","0","99","99","99","99","99","NA","99","99","2","Wed Nov 17 22:20:07 2021","-6.5","The main experiment item","yes","experiment.osexp","C:/Users/elus/Demant/+Team OMEXP - Article/ISAAR 2021/Data/experiments","no","mono","no","18","no","white","no","Next","400","no","768","27","2","27","C:/Users/elus/Documents/RecordingLSL_maybefinal/subject-8.csv","10","[<opensesame_plugins.lsl_start.liblsl.LSL_session object at 0x0000015122F53C88>]","Kafkaesque Koffka","3.2.7","1","0","2","1024","2","48000","-16","experiment","0","8","even","NA","11428","311855","NA","5560","428384","425376","426381","427383","NA","NA","428384","NA","NA","311857","9428","424367","425880","426882","427884","424337","425367","424259","424337","312857","New experiment","yes","1024"
"<opensesame_plugins.lsl_start.liblsl.LSL_session object at 0x0000015122F53C88>","1","black","[0.0, 0.0]","legacy","0","uniform","100","0","2","0","0","100","100","100","100","2","NA","100","NA","0","2","0","100","100","100","100","100","NA","100","100","2","Wed Nov 17 22:20:07 2021","-6.5","The main experiment item","yes","experiment.osexp","C:/Users/elus/Demant/+Team OMEXP - Article/ISAAR 2021/Data/experiments","no","mono","no","18","no","white","no","Next","400","no","768","28","2","28","C:/Users/elus/Documents/RecordingLSL_maybefinal/subject-8.csv","10","[<opensesame_plugins.lsl_start.liblsl.LSL_session object at 0x0000015122F53C88>]","Kafkaesque Koffka","3.2.7","2","0","2","1024","2","48000","-16","experiment","0","8","even","NA","11428","311855","NA","5560","432511","429506","430508","431510","NA","NA","432511","NA","NA","311857","9428","428490","430007","431009","432011","428464","429490","428386","428464","312857","New experiment","yes","1024"
"<opensesame_plugins.lsl_start.liblsl.LSL_session object at 0x0000015122F53C88>","1","black","[0.0, 0.0]","legacy","0","uniform","101","0","2","0","0","101","101","101","101","2","NA","101","NA","0","2","0","101","101","101","101","101","NA","101","101","2","Wed Nov 17 22:20:07 2021","-6.5","The main experiment item","yes","experiment.osexp","C:/Users/elus/Demant/+Team OMEXP - Article/ISAAR 2021/Data/experiments","no","mono","no","18","no","white","no","Next","400","no","768","29","2","29","C:/Users/elus/Documents/RecordingLSL_maybefinal/subject-8.csv","10","[<opensesame_plugins.lsl_start.liblsl.LSL_session object at 0x0000015122F53C88>]","Kafkaesque Koffka","3.2.7","3","0","2","1024","2","48000","-16","experiment","0","8","even","NA","11428","311855","NA","5560","436643","433637","434640","435642","NA","NA","436643","NA","NA","311857","9428","432624","434139","435141","436143","432593","433624","432513","432593","312857","New experiment","yes","1024"
"<opensesame_plugins.lsl_start.liblsl.LSL_session object at 0x0000015122F53C88>","1","black","[0.0, 0.0]","legacy","0","uniform","102","0","2","0","0","102","102","102","102","2","NA","102","NA","0","2","0","102","102","102","102","102","NA","102","102","2","Wed Nov 17 22:20:07 2021","-7","The main experiment item","yes","experiment.osexp","C:/Users/elus/Demant/+Team OMEXP - Article/ISAAR 2021/Data/experiments","no","mono","no","18","no","white","no","Next","400","no","768","30","2","30","C:/Users/elus/Documents/RecordingLSL_maybefinal/subject-8.csv","10","[<opensesame_plugins.lsl_start.liblsl.LSL_session object at 0x0000015122F53C88>]","Kafkaesque Koffka","3.2.7","1","0","2","1024","2","48000","-16","experiment","0","8","even","NA","11428","311855","NA","5560","440771","437766","438768","439770","NA","NA","440771","NA","NA","311857","9428","436754","438267","439269","440271","436725","437754","436645","436725","312857","New experiment","yes","1024"
