"LSL","answer","background","calibration","canvas_backend","compensation","coordinates","count_change","count_cond_loop","count_condition","count_end","count_experiment","count_generate_answer","count_neutral","count_neutral_2","count_neutral_3","count_new_adaptive_init","count_new_calibration_light","count_new_logger","count_new_lsl_start_1","count_new_lsl_stop","count_new_sketchpad","count_new_sketchpad_1","count_new_sketchpad_2","count_sig1","count_sig2","count_sig3","count_sound_generation","count_stimulus","count_tracking","count_trial","count_trial_loop","datetime","depth","description","disable_garbage_collection","experiment_file","experiment_path","font_bold","font_family","font_italic","font_size","font_underline","foreground","form_clicks","form_response","frequency","fullscreen","height","live_row","live_row_cond_loop","live_row_trial_loop","logfile","mod_freq","notifiers","opensesame_codename","opensesame_version","position","repeat_cycle","round_decimals","sound_buf_size","sound_channels","sound_freq","sound_sample_size","start","stop","subject_nr","subject_parity","time_change","time_cond_loop","time_condition","time_end","time_experiment","time_generate_answer","time_neutral","time_neutral_2","time_neutral_3","time_new_adaptive_init","time_new_calibration_light","time_new_logger","time_new_lsl_start_1","time_new_lsl_stop","time_new_sketchpad","time_new_sketchpad_1","time_new_sketchpad_2","time_sig1","time_sig2","time_sig3","time_sound_generation","time_stimulus","time_tracking","time_trial","time_trial_loop","title","uniform_coordinates","width"
"<opensesame_plugins.lsl_start.liblsl.LSL_session object at 0x000001DE0EB03CC0>","1","black","[0.0, 0.0]","legacy","0","uniform","0","0","0","0","0","0","0","0","0","0","NA","0","NA","0","0","0","0","0","0","0","0","NA","0","0","0","Wed Nov 17 21:32:56 2021","-6","The main experiment item","yes","experiment.osexp","C:/Users/elus/Demant/+Team OMEXP - Article/ISAAR 2021/Data/experiments","no","mono","no","18","no","white","no","Next","400","no","768","0","0","0","C:/Users/elus/Documents/RecordingLSL_maybefinal/subject-4.csv","5","[<opensesame_plugins.lsl_start.liblsl.LSL_session object at 0x000001DE0EB03CC0>]","Kafkaesque Koffka","3.2.7","1","0","2","1024","2","48000","-16","experiment","0","4","even","NA","12151","12183","NA","6007","17325","14320","15322","16324","NA","NA","17329","NA","NA","12185","10151","13313","14821","15823","16825","13235","14313","NA","13235","13185","New experiment","yes","1024"
"<opensesame_plugins.lsl_start.liblsl.LSL_session object at 0x000001DE0EB03CC0>","1","black","[0.0, 0.0]","legacy","0","uniform","1","0","0","0","0","1","1","1","1","0","NA","1","NA","0","0","0","1","1","1","1","1","NA","1","1","0","Wed Nov 17 21:32:56 2021","-6","The main experiment item","yes","experiment.osexp","C:/Users/elus/Demant/+Team OMEXP - Article/ISAAR 2021/Data/experiments","no","mono","no","18","no","white","no","Next","400","no","768","1","0","1","C:/Users/elus/Documents/RecordingLSL_maybefinal/subject-4.csv","5","[<opensesame_plugins.lsl_start.liblsl.LSL_session object at 0x000001DE0EB03CC0>]","Kafkaesque Koffka","3.2.7","2","0","2","1024","2","48000","-16","experiment","0","4","even","NA","12151","12183","NA","6007","21460","18455","19457","20459","NA","NA","21460","NA","NA","12185","10151","17442","18956","19958","20960","17414","18443","17334","17414","13185","New experiment","yes","1024"
"<opensesame_plugins.lsl_start.liblsl.LSL_session object at 0x000001DE0EB03CC0>","1","black","[0.0, 0.0]","legacy","0","uniform","2","0","0","0","0","2","2","2","2","0","NA","2","NA","0","0","0","2","2","2","2","2","NA","2","2","0","Wed Nov 17 21:32:56 2021","-6","The main experiment item","yes","experiment.osexp","C:/Users/elus/Demant/+Team OMEXP - Article/ISAAR 2021/Data/experiments","no","mono","no","18","no","white","no","Next","400","no","768","2","0","2","C:/Users/elus/Documents/RecordingLSL_maybefinal/subject-4.csv","5","[<opensesame_plugins.lsl_start.liblsl.LSL_session object at 0x000001DE0EB03CC0>]","Kafkaesque Koffka","3.2.7","3","0","2","1024","2","48000","-16","experiment","0","4","even","NA","12151","12183","NA","6007","25589","22583","23585","24587","NA","NA","25589","NA","NA","12185","10151","21572","23084","24086","25089","21541","22572","21462","21541","13185","New experiment","yes","1024"
"<opensesame_plugins.lsl_start.liblsl.LSL_session object at 0x000001DE0EB03CC0>","1","black","[0.0, 0.0]","legacy","0","uniform","3","0","0","0","0","3","3","3","3","0","NA","3","NA","0","0","0","3","3","3","3","3","NA","3","3","0","Wed Nov 17 21:32:56 2021","-7","The main experiment item","yes","experiment.osexp","C:/Users/elus/Demant/+Team OMEXP - Article/ISAAR 2021/Data/experiments","no","mono","no","18","no","white","no","Next","400","no","768","3","0","3","C:/Users/elus/Documents/RecordingLSL_maybefinal/subject-4.csv","5","[<opensesame_plugins.lsl_start.liblsl.LSL_session object at 0x000001DE0EB03CC0>]","Kafkaesque Koffka","3.2.7","1","0","2","1024","2","48000","-16","experiment","0","4","even","NA","12151","12183","NA","6007","29733","26723","27727","28730","NA","NA","29733","NA","NA","12185","10151","25712","27225","28229","29233","25681","26712","25593","25681","13185","New experiment","yes","1024"
"<opensesame_plugins.lsl_start.liblsl.LSL_session object at 0x000001DE0EB03CC0>","1","black","[0.0, 0.0]","legacy","0","uniform","4","0","0","0","0","4","4","4","4","0","NA","4","NA","0","0","0","4","4","4","4","4","NA","4","4","0","Wed Nov 17 21:32:56 2021","-7","The main experiment item","yes","experiment.osexp","C:/Users/elus/Demant/+Team OMEXP - Article/ISAAR 2021/Data/experiments","no","mono","no","18","no","white","no","Next","400","no","768","4","0","4","C:/Users/elus/Documents/RecordingLSL_maybefinal/subject-4.csv","5","[<opensesame_plugins.lsl_start.liblsl.LSL_session object at 0x000001DE0EB03CC0>]","Kafkaesque Koffka","3.2.7","2","0","2","1024","2","48000","-16","experiment","0","4","even","NA","12151","12183","NA","6007","33879","30874","31876","32878","NA","NA","33879","NA","NA","12185","10151","29859","31375","32377","33379","29827","30859","29737","29827","13185","New experiment","yes","1024"
"<opensesame_plugins.lsl_start.liblsl.LSL_session object at 0x000001DE0EB03CC0>","1","black","[0.0, 0.0]","legacy","0","uniform","5","0","0","0","0","5","5","5","5","0","NA","5","NA","0","0","0","5","5","5","5","5","NA","5","5","0","Wed Nov 17 21:32:56 2021","-7","The main experiment item","yes","experiment.osexp","C:/Users/elus/Demant/+Team OMEXP - Article/ISAAR 2021/Data/experiments","no","mono","no","18","no","white","no","Next","400","no","768","5","0","5","C:/Users/elus/Documents/RecordingLSL_maybefinal/subject-4.csv","5","[<opensesame_plugins.lsl_start.liblsl.LSL_session object at 0x000001DE0EB03CC0>]","Kafkaesque Koffka","3.2.7","3","0","2","1024","2","48000","-16","experiment","0","4","even","NA","12151","12183","NA","6007","38010","35005","36007","37009","NA","NA","38010","NA","NA","12185","10151","33996","35506","36508","37510","33966","34996","33881","33966","13185","New experiment","yes","1024"
"<opensesame_plugins.lsl_start.liblsl.LSL_session object at 0x000001DE0EB03CC0>","1","black","[0.0, 0.0]","legacy","0","uniform","6","0","0","0","0","6","6","6","6","0","NA","6","NA","0","0","0","6","6","6","6","6","NA","6","6","0","Wed Nov 17 21:32:56 2021","-8","The main experiment item","yes","experiment.osexp","C:/Users/elus/Demant/+Team OMEXP - Article/ISAAR 2021/Data/experiments","no","mono","no","18","no","white","no","Next","400","no","768","6","0","6","C:/Users/elus/Documents/RecordingLSL_maybefinal/subject-4.csv","5","[<opensesame_plugins.lsl_start.liblsl.LSL_session object at 0x000001DE0EB03CC0>]","Kafkaesque Koffka","3.2.7","1","0","2","1024","2","48000","-16","experiment","0","4","even","NA","12151","12183","NA","6007","42159","39154","40156","41158","NA","NA","42159","NA","NA","12185","10151","38141","39655","40657","41659","38110","39141","38017","38110","13185","New experiment","yes","1024"
"<opensesame_plugins.lsl_start.liblsl.LSL_session object at 0x000001DE0EB03CC0>","1","black","[0.0, 0.0]","legacy","0","uniform","7","0","0","0","0","7","7","7","7","0","NA","7","NA","0","0","0","7","7","7","7","7","NA","7","7","0","Wed Nov 17 21:32:56 2021","-8","The main experiment item","yes","experiment.osexp","C:/Users/elus/Demant/+Team OMEXP - Article/ISAAR 2021/Data/experiments","no","mono","no","18","no","white","no","Next","400","no","768","7","0","7","C:/Users/elus/Documents/RecordingLSL_maybefinal/subject-4.csv","5","[<opensesame_plugins.lsl_start.liblsl.LSL_session object at 0x000001DE0EB03CC0>]","Kafkaesque Koffka","3.2.7","2","0","2","1024","2","48000","-16","experiment","0","4","even","NA","12151","12183","NA","6007","46300","43283","44297","45299","NA","NA","46300","NA","NA","12185","10151","42275","43796","44798","45800","42244","43275","42161","42244","13185","New experiment","yes","1024"
"<opensesame_plugins.lsl_start.liblsl.LSL_session object at 0x000001DE0EB03CC0>","1","black","[0.0, 0.0]","legacy","0","uniform","8","0","0","0","0","8","8","8","8","0","NA","8","NA","0","0","0","8","8","8","8","8","NA","8","8","0","Wed Nov 17 21:32:56 2021","-8","The main experiment item","yes","experiment.osexp","C:/Users/elus/Demant/+Team OMEXP - Article/ISAAR 2021/Data/experiments","no","mono","no","18","no","white","no","Next","400","no","768","8","0","8","C:/Users/elus/Documents/RecordingLSL_maybefinal/subject-4.csv","5","[<opensesame_plugins.lsl_start.liblsl.LSL_session object at 0x000001DE0EB03CC0>]","Kafkaesque Koffka","3.2.7","3","0","2","1024","2","48000","-16","experiment","0","4","even","NA","12151","12183","NA","6007","50446","47433","48440","49445","NA","NA","50446","NA","NA","12185","10151","46416","47939","48944","49946","46388","47416","46308","46388","13185","New experiment","yes","1024"
"<opensesame_plugins.lsl_start.liblsl.LSL_session object at 0x000001DE0EB03CC0>","1","black","[0.0, 0.0]","legacy","0","uniform","9","0","0","0","0","9","9","9","9","0","NA","9","NA","0","0","0","9","9","9","9","9","NA","9","9","0","Wed Nov 17 21:32:56 2021","-9","The main experiment item","yes","experiment.osexp","C:/Users/elus/Demant/+Team OMEXP - Article/ISAAR 2021/Data/experiments","no","mono","no","18","no","white","no","Next","400","no","768","9","0","9","C:/Users/elus/Documents/RecordingLSL_maybefinal/subject-4.csv","5","[<opensesame_plugins.lsl_start.liblsl.LSL_session object at 0x000001DE0EB03CC0>]","Kafkaesque Koffka","3.2.7","1","0","2","1024","2","48000","-16","experiment","0","4","even","NA","12151","12183","NA","6007","54589","51583","52586","53588","NA","NA","54589","NA","NA","12185","10151","50570","52085","53087","54089","50542","51570","50453","50542","13185","New experiment","yes","1024"
"<opensesame_plugins.lsl_start.liblsl.LSL_session object at 0x000001DE0EB03CC0>","1","black","[0.0, 0.0]","legacy","0","uniform","10","0","0","0","0","10","10","10","10","0","NA","10","NA","0","0","0","10","10","10","10","10","NA","10","10","0","Wed Nov 17 21:32:56 2021","-9","The main experiment item","yes","experiment.osexp","C:/Users/elus/Demant/+Team OMEXP - Article/ISAAR 2021/Data/experiments","no","mono","no","18","no","white","no","Next","400","no","768","10","0","10","C:/Users/elus/Documents/RecordingLSL_maybefinal/subject-4.csv","5","[<opensesame_plugins.lsl_start.liblsl.LSL_session object at 0x000001DE0EB03CC0>]","Kafkaesque Koffka","3.2.7","2","0","2","1024","2","48000","-16","experiment","0","4","even","NA","12151","12183","NA","6007","58718","55713","56716","57717","NA","NA","58718","NA","NA","12185","10151","54703","56214","57216","58218","54674","55704","54597","54674","13185","New experiment","yes","1024"
"<opensesame_plugins.lsl_start.liblsl.LSL_session object at 0x000001DE0EB03CC0>","1","black","[0.0, 0.0]","legacy","0","uniform","11","0","0","0","0","11","11","11","11","0","NA","11","NA","0","0","0","11","11","11","11","11","NA","11","11","0","Wed Nov 17 21:32:56 2021","-9","The main experiment item","yes","experiment.osexp","C:/Users/elus/Demant/+Team OMEXP - Article/ISAAR 2021/Data/experiments","no","mono","no","18","no","white","no","Next","400","no","768","11","0","11","C:/Users/elus/Documents/RecordingLSL_maybefinal/subject-4.csv","5","[<opensesame_plugins.lsl_start.liblsl.LSL_session object at 0x000001DE0EB03CC0>]","Kafkaesque Koffka","3.2.7","3","0","2","1024","2","48000","-16","experiment","0","4","even","NA","12151","12183","NA","6007","62849","59844","60846","61848","NA","NA","62849","NA","NA","12185","10151","58830","60345","61347","62349","58800","59831","58720","58800","13185","New experiment","yes","1024"
"<opensesame_plugins.lsl_start.liblsl.LSL_session object at 0x000001DE0EB03CC0>","0","black","[0.0, 0.0]","legacy","0","uniform","12","0","0","0","0","12","12","12","12","0","NA","12","NA","0","0","0","12","12","12","12","12","NA","12","12","0","Wed Nov 17 21:32:56 2021","-10","The main experiment item","yes","experiment.osexp","C:/Users/elus/Demant/+Team OMEXP - Article/ISAAR 2021/Data/experiments","no","mono","no","18","no","white","no","Next","400","no","768","12","0","12","C:/Users/elus/Documents/RecordingLSL_maybefinal/subject-4.csv","5","[<opensesame_plugins.lsl_start.liblsl.LSL_session object at 0x000001DE0EB03CC0>]","Kafkaesque Koffka","3.2.7","1","0","2","1024","2","48000","-16","experiment","0","4","even","NA","12151","12183","NA","6007","66988","63983","64985","65987","NA","NA","66988","NA","NA","12185","10151","62970","64484","65486","66488","62939","63971","62851","62939","13185","New experiment","yes","1024"
"<opensesame_plugins.lsl_start.liblsl.LSL_session object at 0x000001DE0EB03CC0>","0","black","[0.0, 0.0]","legacy","0","uniform","13","0","0","0","0","13","13","13","13","0","NA","13","NA","0","0","0","13","13","13","13","13","NA","13","13","0","Wed Nov 17 21:32:56 2021","-9.5","The main experiment item","yes","experiment.osexp","C:/Users/elus/Demant/+Team OMEXP - Article/ISAAR 2021/Data/experiments","no","mono","no","18","no","white","no","Next","400","no","768","13","0","13","C:/Users/elus/Documents/RecordingLSL_maybefinal/subject-4.csv","5","[<opensesame_plugins.lsl_start.liblsl.LSL_session object at 0x000001DE0EB03CC0>]","Kafkaesque Koffka","3.2.7","2","0","2","1024","2","48000","-16","experiment","0","4","even","NA","12151","12183","NA","6007","71129","68124","69126","70128","NA","NA","71129","NA","NA","12185","10151","67114","68625","69627","70629","67084","68114","66990","67084","13185","New experiment","yes","1024"
"<opensesame_plugins.lsl_start.liblsl.LSL_session object at 0x000001DE0EB03CC0>","0","black","[0.0, 0.0]","legacy","0","uniform","14","0","0","0","0","14","14","14","14","0","NA","14","NA","0","0","0","14","14","14","14","14","NA","14","14","0","Wed Nov 17 21:32:56 2021","-9","The main experiment item","yes","experiment.osexp","C:/Users/elus/Demant/+Team OMEXP - Article/ISAAR 2021/Data/experiments","no","mono","no","18","no","white","no","Next","400","no","768","14","0","14","C:/Users/elus/Documents/RecordingLSL_maybefinal/subject-4.csv","5","[<opensesame_plugins.lsl_start.liblsl.LSL_session object at 0x000001DE0EB03CC0>]","Kafkaesque Koffka","3.2.7","3","0","2","1024","2","48000","-16","experiment","0","4","even","NA","12151","12183","NA","6007","75258","72253","73255","74257","NA","NA","75258","NA","NA","12185","10151","71241","72754","73756","74758","71212","72241","71131","71212","13185","New experiment","yes","1024"
"<opensesame_plugins.lsl_start.liblsl.LSL_session object at 0x000001DE0EB03CC0>","0","black","[0.0, 0.0]","legacy","0","uniform","15","0","0","0","0","15","15","15","15","0","NA","15","NA","0","0","0","15","15","15","15","15","NA","15","15","0","Wed Nov 17 21:32:56 2021","-8.5","The main experiment item","yes","experiment.osexp","C:/Users/elus/Demant/+Team OMEXP - Article/ISAAR 2021/Data/experiments","no","mono","no","18","no","white","no","Next","400","no","768","15","0","15","C:/Users/elus/Documents/RecordingLSL_maybefinal/subject-4.csv","5","[<opensesame_plugins.lsl_start.liblsl.LSL_session object at 0x000001DE0EB03CC0>]","Kafkaesque Koffka","3.2.7","1","0","2","1024","2","48000","-16","experiment","0","4","even","NA","12151","12183","NA","6007","79388","76383","77385","78387","NA","NA","79388","NA","NA","12185","10151","75369","76884","77886","78888","75339","76369","75260","75339","13185","New experiment","yes","1024"
"<opensesame_plugins.lsl_start.liblsl.LSL_session object at 0x000001DE0EB03CC0>","0","black","[0.0, 0.0]","legacy","0","uniform","16","0","0","0","0","16","16","16","16","0","NA","16","NA","0","0","0","16","16","16","16","16","NA","16","16","0","Wed Nov 17 21:32:56 2021","-8","The main experiment item","yes","experiment.osexp","C:/Users/elus/Demant/+Team OMEXP - Article/ISAAR 2021/Data/experiments","no","mono","no","18","no","white","no","Next","400","no","768","16","0","16","C:/Users/elus/Documents/RecordingLSL_maybefinal/subject-4.csv","5","[<opensesame_plugins.lsl_start.liblsl.LSL_session object at 0x000001DE0EB03CC0>]","Kafkaesque Koffka","3.2.7","2","0","2","1024","2","48000","-16","experiment","0","4","even","NA","12151","12183","NA","6007","83510","80505","81507","82509","NA","NA","83510","NA","NA","12185","10151","79495","81006","82008","83010","79467","80496","79390","79467","13185","New experiment","yes","1024"
"<opensesame_plugins.lsl_start.liblsl.LSL_session object at 0x000001DE0EB03CC0>","1","black","[0.0, 0.0]","legacy","0","uniform","17","0","0","0","0","17","17","17","17","0","NA","17","NA","0","0","0","17","17","17","17","17","NA","17","17","0","Wed Nov 17 21:32:56 2021","-7.5","The main experiment item","yes","experiment.osexp","C:/Users/elus/Demant/+Team OMEXP - Article/ISAAR 2021/Data/experiments","no","mono","no","18","no","white","no","Next","400","no","768","17","0","17","C:/Users/elus/Documents/RecordingLSL_maybefinal/subject-4.csv","5","[<opensesame_plugins.lsl_start.liblsl.LSL_session object at 0x000001DE0EB03CC0>]","Kafkaesque Koffka","3.2.7","3","0","2","1024","2","48000","-16","experiment","0","4","even","NA","12151","12183","NA","6007","87638","84633","85635","86637","NA","NA","87638","NA","NA","12185","10151","83618","85134","86136","87138","83589","84618","83512","83589","13185","New experiment","yes","1024"
"<opensesame_plugins.lsl_start.liblsl.LSL_session object at 0x000001DE0EB03CC0>","1","black","[0.0, 0.0]","legacy","0","uniform","18","0","0","0","0","18","18","18","18","0","NA","18","NA","0","0","0","18","18","18","18","18","NA","18","18","0","Wed Nov 17 21:32:56 2021","-7.5","The main experiment item","yes","experiment.osexp","C:/Users/elus/Demant/+Team OMEXP - Article/ISAAR 2021/Data/experiments","no","mono","no","18","no","white","no","Next","400","no","768","18","0","18","C:/Users/elus/Documents/RecordingLSL_maybefinal/subject-4.csv","5","[<opensesame_plugins.lsl_start.liblsl.LSL_session object at 0x000001DE0EB03CC0>]","Kafkaesque Koffka","3.2.7","1","0","2","1024","2","48000","-16","experiment","0","4","even","NA","12151","12183","NA","6007","91758","88753","89755","90757","NA","NA","91758","NA","NA","12185","10151","87744","89254","90256","91258","87718","88744","87640","87718","13185","New experiment","yes","1024"
"<opensesame_plugins.lsl_start.liblsl.LSL_session object at 0x000001DE0EB03CC0>","1","black","[0.0, 0.0]","legacy","0","uniform","19","0","0","0","0","19","19","19","19","0","NA","19","NA","0","0","0","19","19","19","19","19","NA","19","19","0","Wed Nov 17 21:32:56 2021","-7.5","The main experiment item","yes","experiment.osexp","C:/Users/elus/Demant/+Team OMEXP - Article/ISAAR 2021/Data/experiments","no","mono","no","18","no","white","no","Next","400","no","768","19","0","19","C:/Users/elus/Documents/RecordingLSL_maybefinal/subject-4.csv","5","[<opensesame_plugins.lsl_start.liblsl.LSL_session object at 0x000001DE0EB03CC0>]","Kafkaesque Koffka","3.2.7","2","0","2","1024","2","48000","-16","experiment","0","4","even","NA","12151","12183","NA","6007","95881","92875","93878","94880","NA","NA","95881","NA","NA","12185","10151","91866","93377","94379","95381","91839","92866","91760","91839","13185","New experiment","yes","1024"
"<opensesame_plugins.lsl_start.liblsl.LSL_session object at 0x000001DE0EB03CC0>","1","black","[0.0, 0.0]","legacy","0","uniform","20","0","0","0","0","20","20","20","20","0","NA","20","NA","0","0","0","20","20","20","20","20","NA","20","20","0","Wed Nov 17 21:32:56 2021","-8","The main experiment item","yes","experiment.osexp","C:/Users/elus/Demant/+Team OMEXP - Article/ISAAR 2021/Data/experiments","no","mono","no","18","no","white","no","Next","400","no","768","20","0","20","C:/Users/elus/Documents/RecordingLSL_maybefinal/subject-4.csv","5","[<opensesame_plugins.lsl_start.liblsl.LSL_session object at 0x000001DE0EB03CC0>]","Kafkaesque Koffka","3.2.7","3","0","2","1024","2","48000","-16","experiment","0","4","even","NA","12151","12183","NA","6007","100007","97002","98004","99006","NA","NA","100007","NA","NA","12185","10151","95990","97503","98505","99507","95963","96991","95883","95962","13185","New experiment","yes","1024"
"<opensesame_plugins.lsl_start.liblsl.LSL_session object at 0x000001DE0EB03CC0>","1","black","[0.0, 0.0]","legacy","0","uniform","21","0","0","0","0","21","21","21","21","0","NA","21","NA","0","0","0","21","21","21","21","21","NA","21","21","0","Wed Nov 17 21:32:56 2021","-8","The main experiment item","yes","experiment.osexp","C:/Users/elus/Demant/+Team OMEXP - Article/ISAAR 2021/Data/experiments","no","mono","no","18","no","white","no","Next","400","no","768","21","0","21","C:/Users/elus/Documents/RecordingLSL_maybefinal/subject-4.csv","5","[<opensesame_plugins.lsl_start.liblsl.LSL_session object at 0x000001DE0EB03CC0>]","Kafkaesque Koffka","3.2.7","1","0","2","1024","2","48000","-16","experiment","0","4","even","NA","12151","12183","NA","6007","104137","101133","102135","103136","NA","NA","104137","NA","NA","12185","10151","100117","101634","102636","103637","100088","101117","100009","100088","13185","New experiment","yes","1024"
"<opensesame_plugins.lsl_start.liblsl.LSL_session object at 0x000001DE0EB03CC0>","1","black","[0.0, 0.0]","legacy","0","uniform","22","0","0","0","0","22","22","22","22","0","NA","22","NA","0","0","0","22","22","22","22","22","NA","22","22","0","Wed Nov 17 21:32:56 2021","-8","The main experiment item","yes","experiment.osexp","C:/Users/elus/Demant/+Team OMEXP - Article/ISAAR 2021/Data/experiments","no","mono","no","18","no","white","no","Next","400","no","768","22","0","22","C:/Users/elus/Documents/RecordingLSL_maybefinal/subject-4.csv","5","[<opensesame_plugins.lsl_start.liblsl.LSL_session object at 0x000001DE0EB03CC0>]","Kafkaesque Koffka","3.2.7","2","0","2","1024","2","48000","-16","experiment","0","4","even","NA","12151","12183","NA","6007","108258","105253","106255","107257","NA","NA","108258","NA","NA","12185","10151","104245","105754","106756","107758","104219","105245","104139","104219","13185","New experiment","yes","1024"
"<opensesame_plugins.lsl_start.liblsl.LSL_session object at 0x000001DE0EB03CC0>","1","black","[0.0, 0.0]","legacy","0","uniform","23","0","0","0","0","23","23","23","23","0","NA","23","NA","0","0","0","23","23","23","23","23","NA","23","23","0","Wed Nov 17 21:32:56 2021","-8.5","The main experiment item","yes","experiment.osexp","C:/Users/elus/Demant/+Team OMEXP - Article/ISAAR 2021/Data/experiments","no","mono","no","18","no","white","no","Next","400","no","768","23","0","23","C:/Users/elus/Documents/RecordingLSL_maybefinal/subject-4.csv","5","[<opensesame_plugins.lsl_start.liblsl.LSL_session object at 0x000001DE0EB03CC0>]","Kafkaesque Koffka","3.2.7","3","0","2","1024","2","48000","-16","experiment","0","4","even","NA","12151","12183","NA","6007","112377","109373","110375","111376","NA","NA","112377","NA","NA","12185","10151","108364","109874","110875","111877","108337","109365","108260","108337","13185","New experiment","yes","1024"
"<opensesame_plugins.lsl_start.liblsl.LSL_session object at 0x000001DE0EB03CC0>","1","black","[0.0, 0.0]","legacy","0","uniform","24","0","0","0","0","24","24","24","24","0","NA","24","NA","0","0","0","24","24","24","24","24","NA","24","24","0","Wed Nov 17 21:32:56 2021","-8.5","The main experiment item","yes","experiment.osexp","C:/Users/elus/Demant/+Team OMEXP - Article/ISAAR 2021/Data/experiments","no","mono","no","18","no","white","no","Next","400","no","768","24","0","24","C:/Users/elus/Documents/RecordingLSL_maybefinal/subject-4.csv","5","[<opensesame_plugins.lsl_start.liblsl.LSL_session object at 0x000001DE0EB03CC0>]","Kafkaesque Koffka","3.2.7","1","0","2","1024","2","48000","-16","experiment","0","4","even","NA","12151","12183","NA","6007","116500","113494","114497","115499","NA","NA","116500","NA","NA","12185","10151","112486","113996","114998","116000","112456","113486","112379","112456","13185","New experiment","yes","1024"
"<opensesame_plugins.lsl_start.liblsl.LSL_session object at 0x000001DE0EB03CC0>","0","black","[0.0, 0.0]","legacy","0","uniform","25","0","0","0","0","25","25","25","25","0","NA","25","NA","0","0","0","25","25","25","25","25","NA","25","25","0","Wed Nov 17 21:32:56 2021","-8.5","The main experiment item","yes","experiment.osexp","C:/Users/elus/Demant/+Team OMEXP - Article/ISAAR 2021/Data/experiments","no","mono","no","18","no","white","no","Next","400","no","768","25","0","25","C:/Users/elus/Documents/RecordingLSL_maybefinal/subject-4.csv","5","[<opensesame_plugins.lsl_start.liblsl.LSL_session object at 0x000001DE0EB03CC0>]","Kafkaesque Koffka","3.2.7","2","0","2","1024","2","48000","-16","experiment","0","4","even","NA","12151","12183","NA","6007","120620","117615","118617","119619","NA","NA","120620","NA","NA","12185","10151","116606","118116","119118","120120","116580","117606","116502","116580","13185","New experiment","yes","1024"
"<opensesame_plugins.lsl_start.liblsl.LSL_session object at 0x000001DE0EB03CC0>","1","black","[0.0, 0.0]","legacy","0","uniform","26","0","0","0","0","26","26","26","26","0","NA","26","NA","0","0","0","26","26","26","26","26","NA","26","26","0","Wed Nov 17 21:32:56 2021","-8","The main experiment item","yes","experiment.osexp","C:/Users/elus/Demant/+Team OMEXP - Article/ISAAR 2021/Data/experiments","no","mono","no","18","no","white","no","Next","400","no","768","26","0","26","C:/Users/elus/Documents/RecordingLSL_maybefinal/subject-4.csv","5","[<opensesame_plugins.lsl_start.liblsl.LSL_session object at 0x000001DE0EB03CC0>]","Kafkaesque Koffka","3.2.7","3","0","2","1024","2","48000","-16","experiment","0","4","even","NA","12151","12183","NA","6007","124747","121742","122744","123746","NA","NA","124747","NA","NA","12185","10151","120734","122243","123245","124247","120702","121734","120622","120702","13185","New experiment","yes","1024"
"<opensesame_plugins.lsl_start.liblsl.LSL_session object at 0x000001DE0EB03CC0>","1","black","[0.0, 0.0]","legacy","0","uniform","27","0","0","0","0","27","27","27","27","0","NA","27","NA","0","0","0","27","27","27","27","27","NA","27","27","0","Wed Nov 17 21:32:56 2021","-8","The main experiment item","yes","experiment.osexp","C:/Users/elus/Demant/+Team OMEXP - Article/ISAAR 2021/Data/experiments","no","mono","no","18","no","white","no","Next","400","no","768","27","0","27","C:/Users/elus/Documents/RecordingLSL_maybefinal/subject-4.csv","5","[<opensesame_plugins.lsl_start.liblsl.LSL_session object at 0x000001DE0EB03CC0>]","Kafkaesque Koffka","3.2.7","1","0","2","1024","2","48000","-16","experiment","0","4","even","NA","12151","12183","NA","6007","128870","125865","126867","127869","NA","NA","128870","NA","NA","12185","10151","124856","126366","127368","128370","124828","125856","124749","124828","13185","New experiment","yes","1024"
"<opensesame_plugins.lsl_start.liblsl.LSL_session object at 0x000001DE0EB03CC0>","1","black","[0.0, 0.0]","legacy","0","uniform","28","0","0","0","0","28","28","28","28","0","NA","28","NA","0","0","0","28","28","28","28","28","NA","28","28","0","Wed Nov 17 21:32:56 2021","-8","The main experiment item","yes","experiment.osexp","C:/Users/elus/Demant/+Team OMEXP - Article/ISAAR 2021/Data/experiments","no","mono","no","18","no","white","no","Next","400","no","768","28","0","28","C:/Users/elus/Documents/RecordingLSL_maybefinal/subject-4.csv","5","[<opensesame_plugins.lsl_start.liblsl.LSL_session object at 0x000001DE0EB03CC0>]","Kafkaesque Koffka","3.2.7","2","0","2","1024","2","48000","-16","experiment","0","4","even","NA","12151","12183","NA","6007","132998","129993","130995","131997","NA","NA","132998","NA","NA","12185","10151","128977","130494","131496","132498","128950","129977","128872","128949","13185","New experiment","yes","1024"
"<opensesame_plugins.lsl_start.liblsl.LSL_session object at 0x000001DE0EB03CC0>","0","black","[0.0, 0.0]","legacy","0","uniform","29","0","0","0","0","29","29","29","29","0","NA","29","NA","0","0","0","29","29","29","29","29","NA","29","29","0","Wed Nov 17 21:32:56 2021","-8.5","The main experiment item","yes","experiment.osexp","C:/Users/elus/Demant/+Team OMEXP - Article/ISAAR 2021/Data/experiments","no","mono","no","18","no","white","no","Next","400","no","768","29","0","29","C:/Users/elus/Documents/RecordingLSL_maybefinal/subject-4.csv","5","[<opensesame_plugins.lsl_start.liblsl.LSL_session object at 0x000001DE0EB03CC0>]","Kafkaesque Koffka","3.2.7","3","0","2","1024","2","48000","-16","experiment","0","4","even","NA","12151","12183","NA","6007","137121","134114","135118","136120","NA","NA","137121","NA","NA","12185","10151","133106","134615","135619","136621","133079","134106","133000","133079","13185","New experiment","yes","1024"
"<opensesame_plugins.lsl_start.liblsl.LSL_session object at 0x000001DE0EB03CC0>","1","black","[0.0, 0.0]","legacy","0","uniform","30","0","0","0","0","30","30","30","30","0","NA","30","NA","0","0","0","30","30","30","30","30","NA","30","30","0","Wed Nov 17 21:32:56 2021","-8","The main experiment item","yes","experiment.osexp","C:/Users/elus/Demant/+Team OMEXP - Article/ISAAR 2021/Data/experiments","no","mono","no","18","no","white","no","Next","400","no","768","30","0","30","C:/Users/elus/Documents/RecordingLSL_maybefinal/subject-4.csv","5","[<opensesame_plugins.lsl_start.liblsl.LSL_session object at 0x000001DE0EB03CC0>]","Kafkaesque Koffka","3.2.7","1","0","2","1024","2","48000","-16","experiment","0","4","even","NA","12151","12183","NA","6007","141247","138242","139244","140246","NA","NA","141247","NA","NA","12185","10151","137232","138743","139745","140747","137207","138232","137123","137207","13185","New experiment","yes","1024"
"<opensesame_plugins.lsl_start.liblsl.LSL_session object at 0x000001DE0EB03CC0>","1","black","[0.0, 0.0]","legacy","0","uniform","31","0","0","0","0","31","31","31","31","0","NA","31","NA","0","0","0","31","31","31","31","31","NA","31","31","0","Wed Nov 17 21:32:56 2021","-8","The main experiment item","yes","experiment.osexp","C:/Users/elus/Demant/+Team OMEXP - Article/ISAAR 2021/Data/experiments","no","mono","no","18","no","white","no","Next","400","no","768","31","0","31","C:/Users/elus/Documents/RecordingLSL_maybefinal/subject-4.csv","5","[<opensesame_plugins.lsl_start.liblsl.LSL_session object at 0x000001DE0EB03CC0>]","Kafkaesque Koffka","3.2.7","2","0","2","1024","2","48000","-16","experiment","0","4","even","NA","12151","12183","NA","6007","145368","142363","143365","144367","NA","NA","145368","NA","NA","12185","10151","141353","142864","143866","144868","141326","142353","141249","141326","13185","New experiment","yes","1024"
"<opensesame_plugins.lsl_start.liblsl.LSL_session object at 0x000001DE0EB03CC0>","1","black","[0.0, 0.0]","legacy","0","uniform","32","0","0","0","0","32","32","32","32","0","NA","32","NA","0","0","0","32","32","32","32","32","NA","32","32","0","Wed Nov 17 21:32:56 2021","-8","The main experiment item","yes","experiment.osexp","C:/Users/elus/Demant/+Team OMEXP - Article/ISAAR 2021/Data/experiments","no","mono","no","18","no","white","no","Next","400","no","768","32","0","32","C:/Users/elus/Documents/RecordingLSL_maybefinal/subject-4.csv","5","[<opensesame_plugins.lsl_start.liblsl.LSL_session object at 0x000001DE0EB03CC0>]","Kafkaesque Koffka","3.2.7","3","0","2","1024","2","48000","-16","experiment","0","4","even","NA","12151","12183","NA","6007","149537","146531","147534","148536","NA","NA","149537","NA","NA","12185","10151","145507","147032","148035","149037","145448","146508","145370","145448","13185","New experiment","yes","1024"
"<opensesame_plugins.lsl_start.liblsl.LSL_session object at 0x000001DE0EB03CC0>","1","black","[0.0, 0.0]","legacy","0","uniform","33","0","0","0","0","33","33","33","33","0","NA","33","NA","0","0","0","33","33","33","33","33","NA","33","33","0","Wed Nov 17 21:32:56 2021","-8.5","The main experiment item","yes","experiment.osexp","C:/Users/elus/Demant/+Team OMEXP - Article/ISAAR 2021/Data/experiments","no","mono","no","18","no","white","no","Next","400","no","768","33","0","33","C:/Users/elus/Documents/RecordingLSL_maybefinal/subject-4.csv","5","[<opensesame_plugins.lsl_start.liblsl.LSL_session object at 0x000001DE0EB03CC0>]","Kafkaesque Koffka","3.2.7","1","0","2","1024","2","48000","-16","experiment","0","4","even","NA","12151","12183","NA","6007","153692","150684","151689","152691","NA","NA","153692","NA","NA","12185","10151","149673","151186","152190","153192","149635","150675","149542","149635","13185","New experiment","yes","1024"
"<opensesame_plugins.lsl_start.liblsl.LSL_session object at 0x000001DE0EB03CC0>","0","black","[0.0, 0.0]","legacy","0","uniform","34","0","0","0","0","34","34","34","34","0","NA","34","NA","0","0","0","34","34","34","34","34","NA","34","34","0","Wed Nov 17 21:32:56 2021","-8.5","The main experiment item","yes","experiment.osexp","C:/Users/elus/Demant/+Team OMEXP - Article/ISAAR 2021/Data/experiments","no","mono","no","18","no","white","no","Next","400","no","768","34","0","34","C:/Users/elus/Documents/RecordingLSL_maybefinal/subject-4.csv","5","[<opensesame_plugins.lsl_start.liblsl.LSL_session object at 0x000001DE0EB03CC0>]","Kafkaesque Koffka","3.2.7","2","0","2","1024","2","48000","-16","experiment","0","4","even","NA","12151","12183","NA","6007","157847","154842","155844","156846","NA","NA","157847","NA","NA","12185","10151","153826","155343","156345","157347","153791","154827","153696","153791","13185","New experiment","yes","1024"
"<opensesame_plugins.lsl_start.liblsl.LSL_session object at 0x000001DE0EB03CC0>","1","black","[0.0, 0.0]","legacy","0","uniform","35","0","0","0","0","35","35","35","35","0","NA","35","NA","0","0","0","35","35","35","35","35","NA","35","35","0","Wed Nov 17 21:32:56 2021","-8","The main experiment item","yes","experiment.osexp","C:/Users/elus/Demant/+Team OMEXP - Article/ISAAR 2021/Data/experiments","no","mono","no","18","no","white","no","Next","400","no","768","35","0","35","C:/Users/elus/Documents/RecordingLSL_maybefinal/subject-4.csv","5","[<opensesame_plugins.lsl_start.liblsl.LSL_session object at 0x000001DE0EB03CC0>]","Kafkaesque Koffka","3.2.7","3","0","2","1024","2","48000","-16","experiment","0","4","even","NA","12151","12183","NA","6007","161999","158994","159996","160998","NA","NA","161999","NA","NA","12185","10151","157981","159495","160497","161499","157943","158981","157849","157943","13185","New experiment","yes","1024"
"<opensesame_plugins.lsl_start.liblsl.LSL_session object at 0x000001DE0EB03CC0>","1","black","[0.0, 0.0]","legacy","0","uniform","36","0","1","0","0","36","36","36","36","1","NA","36","NA","0","1","0","36","36","36","36","36","NA","36","36","1","Wed Nov 17 21:32:56 2021","-6","The main experiment item","yes","experiment.osexp","C:/Users/elus/Demant/+Team OMEXP - Article/ISAAR 2021/Data/experiments","no","mono","no","18","no","white","no","Next","1000","no","768","0","1","0","C:/Users/elus/Documents/RecordingLSL_maybefinal/subject-4.csv","5","[<opensesame_plugins.lsl_start.liblsl.LSL_session object at 0x000001DE0EB03CC0>]","Kafkaesque Koffka","3.2.7","1","0","2","1024","2","48000","-16","experiment","0","4","even","NA","12151","162107","NA","6007","167226","164218","165223","166225","NA","NA","167226","NA","NA","162109","10151","163198","164719","165724","166726","163168","164198","162001","163168","163109","New experiment","yes","1024"
"<opensesame_plugins.lsl_start.liblsl.LSL_session object at 0x000001DE0EB03CC0>","1","black","[0.0, 0.0]","legacy","0","uniform","37","0","1","0","0","37","37","37","37","1","NA","37","NA","0","1","0","37","37","37","37","37","NA","37","37","1","Wed Nov 17 21:32:56 2021","-6","The main experiment item","yes","experiment.osexp","C:/Users/elus/Demant/+Team OMEXP - Article/ISAAR 2021/Data/experiments","no","mono","no","18","no","white","no","Next","1000","no","768","1","1","1","C:/Users/elus/Documents/RecordingLSL_maybefinal/subject-4.csv","5","[<opensesame_plugins.lsl_start.liblsl.LSL_session object at 0x000001DE0EB03CC0>]","Kafkaesque Koffka","3.2.7","2","0","2","1024","2","48000","-16","experiment","0","4","even","NA","12151","162107","NA","6007","171379","168374","169376","170378","NA","NA","171379","NA","NA","162109","10151","167361","168875","169877","170879","167324","168363","167230","167324","163109","New experiment","yes","1024"
"<opensesame_plugins.lsl_start.liblsl.LSL_session object at 0x000001DE0EB03CC0>","1","black","[0.0, 0.0]","legacy","0","uniform","38","0","1","0","0","38","38","38","38","1","NA","38","NA","0","1","0","38","38","38","38","38","NA","38","38","1","Wed Nov 17 21:32:56 2021","-6","The main experiment item","yes","experiment.osexp","C:/Users/elus/Demant/+Team OMEXP - Article/ISAAR 2021/Data/experiments","no","mono","no","18","no","white","no","Next","1000","no","768","2","1","2","C:/Users/elus/Documents/RecordingLSL_maybefinal/subject-4.csv","5","[<opensesame_plugins.lsl_start.liblsl.LSL_session object at 0x000001DE0EB03CC0>]","Kafkaesque Koffka","3.2.7","3","0","2","1024","2","48000","-16","experiment","0","4","even","NA","12151","162107","NA","6007","175532","172524","173529","174531","NA","NA","175532","NA","NA","162109","10151","171513","173025","174030","175032","171474","172514","171381","171474","163109","New experiment","yes","1024"
"<opensesame_plugins.lsl_start.liblsl.LSL_session object at 0x000001DE0EB03CC0>","1","black","[0.0, 0.0]","legacy","0","uniform","39","0","1","0","0","39","39","39","39","1","NA","39","NA","0","1","0","39","39","39","39","39","NA","39","39","1","Wed Nov 17 21:32:56 2021","-7","The main experiment item","yes","experiment.osexp","C:/Users/elus/Demant/+Team OMEXP - Article/ISAAR 2021/Data/experiments","no","mono","no","18","no","white","no","Next","1000","no","768","3","1","3","C:/Users/elus/Documents/RecordingLSL_maybefinal/subject-4.csv","5","[<opensesame_plugins.lsl_start.liblsl.LSL_session object at 0x000001DE0EB03CC0>]","Kafkaesque Koffka","3.2.7","1","0","2","1024","2","48000","-16","experiment","0","4","even","NA","12151","162107","NA","6007","179696","176689","177693","178695","NA","NA","179696","NA","NA","162109","10151","175671","177190","178194","179196","175640","176671","175534","175640","163109","New experiment","yes","1024"
"<opensesame_plugins.lsl_start.liblsl.LSL_session object at 0x000001DE0EB03CC0>","1","black","[0.0, 0.0]","legacy","0","uniform","40","0","1","0","0","40","40","40","40","1","NA","40","NA","0","1","0","40","40","40","40","40","NA","40","40","1","Wed Nov 17 21:32:56 2021","-7","The main experiment item","yes","experiment.osexp","C:/Users/elus/Demant/+Team OMEXP - Article/ISAAR 2021/Data/experiments","no","mono","no","18","no","white","no","Next","1000","no","768","4","1","4","C:/Users/elus/Documents/RecordingLSL_maybefinal/subject-4.csv","5","[<opensesame_plugins.lsl_start.liblsl.LSL_session object at 0x000001DE0EB03CC0>]","Kafkaesque Koffka","3.2.7","2","0","2","1024","2","48000","-16","experiment","0","4","even","NA","12151","162107","NA","6007","183848","180843","181845","182847","NA","NA","183848","NA","NA","162109","10151","179830","181344","182346","183348","179791","180830","179698","179791","163109","New experiment","yes","1024"
"<opensesame_plugins.lsl_start.liblsl.LSL_session object at 0x000001DE0EB03CC0>","1","black","[0.0, 0.0]","legacy","0","uniform","41","0","1","0","0","41","41","41","41","1","NA","41","NA","0","1","0","41","41","41","41","41","NA","41","41","1","Wed Nov 17 21:32:56 2021","-7","The main experiment item","yes","experiment.osexp","C:/Users/elus/Demant/+Team OMEXP - Article/ISAAR 2021/Data/experiments","no","mono","no","18","no","white","no","Next","1000","no","768","5","1","5","C:/Users/elus/Documents/RecordingLSL_maybefinal/subject-4.csv","5","[<opensesame_plugins.lsl_start.liblsl.LSL_session object at 0x000001DE0EB03CC0>]","Kafkaesque Koffka","3.2.7","3","0","2","1024","2","48000","-16","experiment","0","4","even","NA","12151","162107","NA","6007","188013","185005","186010","187012","NA","NA","188013","NA","NA","162109","10151","183987","185506","186511","187513","183955","184987","183850","183954","163109","New experiment","yes","1024"
"<opensesame_plugins.lsl_start.liblsl.LSL_session object at 0x000001DE0EB03CC0>","1","black","[0.0, 0.0]","legacy","0","uniform","42","0","1","0","0","42","42","42","42","1","NA","42","NA","0","1","0","42","42","42","42","42","NA","42","42","1","Wed Nov 17 21:32:56 2021","-8","The main experiment item","yes","experiment.osexp","C:/Users/elus/Demant/+Team OMEXP - Article/ISAAR 2021/Data/experiments","no","mono","no","18","no","white","no","Next","1000","no","768","6","1","6","C:/Users/elus/Documents/RecordingLSL_maybefinal/subject-4.csv","5","[<opensesame_plugins.lsl_start.liblsl.LSL_session object at 0x000001DE0EB03CC0>]","Kafkaesque Koffka","3.2.7","1","0","2","1024","2","48000","-16","experiment","0","4","even","NA","12151","162107","NA","6007","192179","189173","190176","191178","NA","NA","192179","NA","NA","162109","10151","188157","189674","190677","191679","188122","189158","188015","188122","163109","New experiment","yes","1024"
"<opensesame_plugins.lsl_start.liblsl.LSL_session object at 0x000001DE0EB03CC0>","1","black","[0.0, 0.0]","legacy","0","uniform","43","0","1","0","0","43","43","43","43","1","NA","43","NA","0","1","0","43","43","43","43","43","NA","43","43","1","Wed Nov 17 21:32:56 2021","-8","The main experiment item","yes","experiment.osexp","C:/Users/elus/Demant/+Team OMEXP - Article/ISAAR 2021/Data/experiments","no","mono","no","18","no","white","no","Next","1000","no","768","7","1","7","C:/Users/elus/Documents/RecordingLSL_maybefinal/subject-4.csv","5","[<opensesame_plugins.lsl_start.liblsl.LSL_session object at 0x000001DE0EB03CC0>]","Kafkaesque Koffka","3.2.7","2","0","2","1024","2","48000","-16","experiment","0","4","even","NA","12151","162107","NA","6007","196339","193333","194335","195337","NA","NA","196339","NA","NA","162109","10151","192315","193834","194836","195839","192275","193315","192181","192275","163109","New experiment","yes","1024"
"<opensesame_plugins.lsl_start.liblsl.LSL_session object at 0x000001DE0EB03CC0>","0","black","[0.0, 0.0]","legacy","0","uniform","44","0","1","0","0","44","44","44","44","1","NA","44","NA","0","1","0","44","44","44","44","44","NA","44","44","1","Wed Nov 17 21:32:56 2021","-8","The main experiment item","yes","experiment.osexp","C:/Users/elus/Demant/+Team OMEXP - Article/ISAAR 2021/Data/experiments","no","mono","no","18","no","white","no","Next","1000","no","768","8","1","8","C:/Users/elus/Documents/RecordingLSL_maybefinal/subject-4.csv","5","[<opensesame_plugins.lsl_start.liblsl.LSL_session object at 0x000001DE0EB03CC0>]","Kafkaesque Koffka","3.2.7","3","0","2","1024","2","48000","-16","experiment","0","4","even","NA","12151","162107","NA","6007","200491","197483","198488","199490","NA","NA","200491","NA","NA","162109","10151","196473","197984","198989","199991","196436","197473","196341","196436","163109","New experiment","yes","1024"
"<opensesame_plugins.lsl_start.liblsl.LSL_session object at 0x000001DE0EB03CC0>","1","black","[0.0, 0.0]","legacy","0","uniform","45","0","1","0","0","45","45","45","45","1","NA","45","NA","0","1","0","45","45","45","45","45","NA","45","45","1","Wed Nov 17 21:32:56 2021","-7.5","The main experiment item","yes","experiment.osexp","C:/Users/elus/Demant/+Team OMEXP - Article/ISAAR 2021/Data/experiments","no","mono","no","18","no","white","no","Next","1000","no","768","9","1","9","C:/Users/elus/Documents/RecordingLSL_maybefinal/subject-4.csv","5","[<opensesame_plugins.lsl_start.liblsl.LSL_session object at 0x000001DE0EB03CC0>]","Kafkaesque Koffka","3.2.7","1","0","2","1024","2","48000","-16","experiment","0","4","even","NA","12151","162107","NA","6007","204660","201654","202657","203659","NA","NA","204660","NA","NA","162109","10151","200642","202156","203158","204160","200608","201642","200499","200608","163109","New experiment","yes","1024"
"<opensesame_plugins.lsl_start.liblsl.LSL_session object at 0x000001DE0EB03CC0>","1","black","[0.0, 0.0]","legacy","0","uniform","46","0","1","0","0","46","46","46","46","1","NA","46","NA","0","1","0","46","46","46","46","46","NA","46","46","1","Wed Nov 17 21:32:56 2021","-7.5","The main experiment item","yes","experiment.osexp","C:/Users/elus/Demant/+Team OMEXP - Article/ISAAR 2021/Data/experiments","no","mono","no","18","no","white","no","Next","1000","no","768","10","1","10","C:/Users/elus/Documents/RecordingLSL_maybefinal/subject-4.csv","5","[<opensesame_plugins.lsl_start.liblsl.LSL_session object at 0x000001DE0EB03CC0>]","Kafkaesque Koffka","3.2.7","2","0","2","1024","2","48000","-16","experiment","0","4","even","NA","12151","162107","NA","6007","208818","205813","206815","207817","NA","NA","208818","NA","NA","162109","10151","204794","206314","207316","208318","204758","205797","204662","204758","163109","New experiment","yes","1024"
"<opensesame_plugins.lsl_start.liblsl.LSL_session object at 0x000001DE0EB03CC0>","1","black","[0.0, 0.0]","legacy","0","uniform","47","0","1","0","0","47","47","47","47","1","NA","47","NA","0","1","0","47","47","47","47","47","NA","47","47","1","Wed Nov 17 21:32:56 2021","-7.5","The main experiment item","yes","experiment.osexp","C:/Users/elus/Demant/+Team OMEXP - Article/ISAAR 2021/Data/experiments","no","mono","no","18","no","white","no","Next","1000","no","768","11","1","11","C:/Users/elus/Documents/RecordingLSL_maybefinal/subject-4.csv","5","[<opensesame_plugins.lsl_start.liblsl.LSL_session object at 0x000001DE0EB03CC0>]","Kafkaesque Koffka","3.2.7","3","0","2","1024","2","48000","-16","experiment","0","4","even","NA","12151","162107","NA","6007","212973","209964","210969","211972","NA","NA","212973","NA","NA","162109","10151","208952","210465","211471","212473","208915","209953","208820","208915","163109","New experiment","yes","1024"
"<opensesame_plugins.lsl_start.liblsl.LSL_session object at 0x000001DE0EB03CC0>","0","black","[0.0, 0.0]","legacy","0","uniform","48","0","1","0","0","48","48","48","48","1","NA","48","NA","0","1","0","48","48","48","48","48","NA","48","48","1","Wed Nov 17 21:32:56 2021","-8","The main experiment item","yes","experiment.osexp","C:/Users/elus/Demant/+Team OMEXP - Article/ISAAR 2021/Data/experiments","no","mono","no","18","no","white","no","Next","1000","no","768","12","1","12","C:/Users/elus/Documents/RecordingLSL_maybefinal/subject-4.csv","5","[<opensesame_plugins.lsl_start.liblsl.LSL_session object at 0x000001DE0EB03CC0>]","Kafkaesque Koffka","3.2.7","1","0","2","1024","2","48000","-16","experiment","0","4","even","NA","12151","162107","NA","6007","217127","214122","215124","216126","NA","NA","217127","NA","NA","162109","10151","213104","214623","215625","216627","213069","214105","212975","213069","163109","New experiment","yes","1024"
"<opensesame_plugins.lsl_start.liblsl.LSL_session object at 0x000001DE0EB03CC0>","1","black","[0.0, 0.0]","legacy","0","uniform","49","0","1","0","0","49","49","49","49","1","NA","49","NA","0","1","0","49","49","49","49","49","NA","49","49","1","Wed Nov 17 21:32:56 2021","-7.5","The main experiment item","yes","experiment.osexp","C:/Users/elus/Demant/+Team OMEXP - Article/ISAAR 2021/Data/experiments","no","mono","no","18","no","white","no","Next","1000","no","768","13","1","13","C:/Users/elus/Documents/RecordingLSL_maybefinal/subject-4.csv","5","[<opensesame_plugins.lsl_start.liblsl.LSL_session object at 0x000001DE0EB03CC0>]","Kafkaesque Koffka","3.2.7","2","0","2","1024","2","48000","-16","experiment","0","4","even","NA","12151","162107","NA","6007","221279","218274","219276","220278","NA","NA","221279","NA","NA","162109","10151","217262","218775","219777","220779","217223","218262","217129","217223","163109","New experiment","yes","1024"
"<opensesame_plugins.lsl_start.liblsl.LSL_session object at 0x000001DE0EB03CC0>","1","black","[0.0, 0.0]","legacy","0","uniform","50","0","1","0","0","50","50","50","50","1","NA","50","NA","0","1","0","50","50","50","50","50","NA","50","50","1","Wed Nov 17 21:32:56 2021","-7.5","The main experiment item","yes","experiment.osexp","C:/Users/elus/Demant/+Team OMEXP - Article/ISAAR 2021/Data/experiments","no","mono","no","18","no","white","no","Next","1000","no","768","14","1","14","C:/Users/elus/Documents/RecordingLSL_maybefinal/subject-4.csv","5","[<opensesame_plugins.lsl_start.liblsl.LSL_session object at 0x000001DE0EB03CC0>]","Kafkaesque Koffka","3.2.7","3","0","2","1024","2","48000","-16","experiment","0","4","even","NA","12151","162107","NA","6007","225438","222433","223435","224437","NA","NA","225438","NA","NA","162109","10151","221416","222934","223936","224938","221381","222417","221286","221381","163109","New experiment","yes","1024"
"<opensesame_plugins.lsl_start.liblsl.LSL_session object at 0x000001DE0EB03CC0>","1","black","[0.0, 0.0]","legacy","0","uniform","51","0","1","0","0","51","51","51","51","1","NA","51","NA","0","1","0","51","51","51","51","51","NA","51","51","1","Wed Nov 17 21:32:56 2021","-7.5","The main experiment item","yes","experiment.osexp","C:/Users/elus/Demant/+Team OMEXP - Article/ISAAR 2021/Data/experiments","no","mono","no","18","no","white","no","Next","1000","no","768","15","1","15","C:/Users/elus/Documents/RecordingLSL_maybefinal/subject-4.csv","5","[<opensesame_plugins.lsl_start.liblsl.LSL_session object at 0x000001DE0EB03CC0>]","Kafkaesque Koffka","3.2.7","1","0","2","1024","2","48000","-16","experiment","0","4","even","NA","12151","162107","NA","6007","229592","226584","227589","228591","NA","NA","229592","NA","NA","162109","10151","225572","227085","228090","229092","225535","226573","225440","225535","163109","New experiment","yes","1024"
"<opensesame_plugins.lsl_start.liblsl.LSL_session object at 0x000001DE0EB03CC0>","0","black","[0.0, 0.0]","legacy","0","uniform","52","0","1","0","0","52","52","52","52","1","NA","52","NA","0","1","0","52","52","52","52","52","NA","52","52","1","Wed Nov 17 21:32:56 2021","-8","The main experiment item","yes","experiment.osexp","C:/Users/elus/Demant/+Team OMEXP - Article/ISAAR 2021/Data/experiments","no","mono","no","18","no","white","no","Next","1000","no","768","16","1","16","C:/Users/elus/Documents/RecordingLSL_maybefinal/subject-4.csv","5","[<opensesame_plugins.lsl_start.liblsl.LSL_session object at 0x000001DE0EB03CC0>]","Kafkaesque Koffka","3.2.7","2","0","2","1024","2","48000","-16","experiment","0","4","even","NA","12151","162107","NA","6007","233744","230735","231741","232743","NA","NA","233744","NA","NA","162109","10151","229723","231236","232242","233244","229687","230724","229594","229687","163109","New experiment","yes","1024"
"<opensesame_plugins.lsl_start.liblsl.LSL_session object at 0x000001DE0EB03CC0>","1","black","[0.0, 0.0]","legacy","0","uniform","53","0","1","0","0","53","53","53","53","1","NA","53","NA","0","1","0","53","53","53","53","53","NA","53","53","1","Wed Nov 17 21:32:56 2021","-7.5","The main experiment item","yes","experiment.osexp","C:/Users/elus/Demant/+Team OMEXP - Article/ISAAR 2021/Data/experiments","no","mono","no","18","no","white","no","Next","1000","no","768","17","1","17","C:/Users/elus/Documents/RecordingLSL_maybefinal/subject-4.csv","5","[<opensesame_plugins.lsl_start.liblsl.LSL_session object at 0x000001DE0EB03CC0>]","Kafkaesque Koffka","3.2.7","3","0","2","1024","2","48000","-16","experiment","0","4","even","NA","12151","162107","NA","6007","237898","234893","235895","236897","NA","NA","237898","NA","NA","162109","10151","233879","235394","236396","237398","233842","234879","233746","233842","163109","New experiment","yes","1024"
"<opensesame_plugins.lsl_start.liblsl.LSL_session object at 0x000001DE0EB03CC0>","0","black","[0.0, 0.0]","legacy","0","uniform","54","0","1","0","0","54","54","54","54","1","NA","54","NA","0","1","0","54","54","54","54","54","NA","54","54","1","Wed Nov 17 21:32:56 2021","-7.5","The main experiment item","yes","experiment.osexp","C:/Users/elus/Demant/+Team OMEXP - Article/ISAAR 2021/Data/experiments","no","mono","no","18","no","white","no","Next","1000","no","768","18","1","18","C:/Users/elus/Documents/RecordingLSL_maybefinal/subject-4.csv","5","[<opensesame_plugins.lsl_start.liblsl.LSL_session object at 0x000001DE0EB03CC0>]","Kafkaesque Koffka","3.2.7","1","0","2","1024","2","48000","-16","experiment","0","4","even","NA","12151","162107","NA","6007","242052","239044","240049","241051","NA","NA","242052","NA","NA","162109","10151","238033","239545","240550","241552","237996","239033","237900","237996","163109","New experiment","yes","1024"
"<opensesame_plugins.lsl_start.liblsl.LSL_session object at 0x000001DE0EB03CC0>","0","black","[0.0, 0.0]","legacy","0","uniform","55","0","1","0","0","55","55","55","55","1","NA","55","NA","0","1","0","55","55","55","55","55","NA","55","55","1","Wed Nov 17 21:32:56 2021","-7","The main experiment item","yes","experiment.osexp","C:/Users/elus/Demant/+Team OMEXP - Article/ISAAR 2021/Data/experiments","no","mono","no","18","no","white","no","Next","1000","no","768","19","1","19","C:/Users/elus/Documents/RecordingLSL_maybefinal/subject-4.csv","5","[<opensesame_plugins.lsl_start.liblsl.LSL_session object at 0x000001DE0EB03CC0>]","Kafkaesque Koffka","3.2.7","2","0","2","1024","2","48000","-16","experiment","0","4","even","NA","12151","162107","NA","6007","246206","243202","244204","245205","NA","NA","246206","NA","NA","162109","10151","242185","243703","244705","245706","242149","243186","242054","242149","163109","New experiment","yes","1024"
"<opensesame_plugins.lsl_start.liblsl.LSL_session object at 0x000001DE0EB03CC0>","1","black","[0.0, 0.0]","legacy","0","uniform","56","0","1","0","0","56","56","56","56","1","NA","56","NA","0","1","0","56","56","56","56","56","NA","56","56","1","Wed Nov 17 21:32:56 2021","-6.5","The main experiment item","yes","experiment.osexp","C:/Users/elus/Demant/+Team OMEXP - Article/ISAAR 2021/Data/experiments","no","mono","no","18","no","white","no","Next","1000","no","768","20","1","20","C:/Users/elus/Documents/RecordingLSL_maybefinal/subject-4.csv","5","[<opensesame_plugins.lsl_start.liblsl.LSL_session object at 0x000001DE0EB03CC0>]","Kafkaesque Koffka","3.2.7","3","0","2","1024","2","48000","-16","experiment","0","4","even","NA","12151","162107","NA","6007","250358","247352","248355","249357","NA","NA","250358","NA","NA","162109","10151","246340","247853","248856","249858","246302","247340","246208","246302","163109","New experiment","yes","1024"
"<opensesame_plugins.lsl_start.liblsl.LSL_session object at 0x000001DE0EB03CC0>","1","black","[0.0, 0.0]","legacy","0","uniform","57","0","1","0","0","57","57","57","57","1","NA","57","NA","0","1","0","57","57","57","57","57","NA","57","57","1","Wed Nov 17 21:32:56 2021","-6.5","The main experiment item","yes","experiment.osexp","C:/Users/elus/Demant/+Team OMEXP - Article/ISAAR 2021/Data/experiments","no","mono","no","18","no","white","no","Next","1000","no","768","21","1","21","C:/Users/elus/Documents/RecordingLSL_maybefinal/subject-4.csv","5","[<opensesame_plugins.lsl_start.liblsl.LSL_session object at 0x000001DE0EB03CC0>]","Kafkaesque Koffka","3.2.7","1","0","2","1024","2","48000","-16","experiment","0","4","even","NA","12151","162107","NA","6007","254515","251509","252512","253514","NA","NA","254515","NA","NA","162109","10151","250492","252010","253013","254015","250456","251493","250360","250456","163109","New experiment","yes","1024"
"<opensesame_plugins.lsl_start.liblsl.LSL_session object at 0x000001DE0EB03CC0>","1","black","[0.0, 0.0]","legacy","0","uniform","58","0","1","0","0","58","58","58","58","1","NA","58","NA","0","1","0","58","58","58","58","58","NA","58","58","1","Wed Nov 17 21:32:56 2021","-6.5","The main experiment item","yes","experiment.osexp","C:/Users/elus/Demant/+Team OMEXP - Article/ISAAR 2021/Data/experiments","no","mono","no","18","no","white","no","Next","1000","no","768","22","1","22","C:/Users/elus/Documents/RecordingLSL_maybefinal/subject-4.csv","5","[<opensesame_plugins.lsl_start.liblsl.LSL_session object at 0x000001DE0EB03CC0>]","Kafkaesque Koffka","3.2.7","2","0","2","1024","2","48000","-16","experiment","0","4","even","NA","12151","162107","NA","6007","258669","255664","256666","257668","NA","NA","258669","NA","NA","162109","10151","254650","256165","257167","258169","254611","255650","254518","254611","163109","New experiment","yes","1024"
"<opensesame_plugins.lsl_start.liblsl.LSL_session object at 0x000001DE0EB03CC0>","1","black","[0.0, 0.0]","legacy","0","uniform","59","0","1","0","0","59","59","59","59","1","NA","59","NA","0","1","0","59","59","59","59","59","NA","59","59","1","Wed Nov 17 21:32:56 2021","-7","The main experiment item","yes","experiment.osexp","C:/Users/elus/Demant/+Team OMEXP - Article/ISAAR 2021/Data/experiments","no","mono","no","18","no","white","no","Next","1000","no","768","23","1","23","C:/Users/elus/Documents/RecordingLSL_maybefinal/subject-4.csv","5","[<opensesame_plugins.lsl_start.liblsl.LSL_session object at 0x000001DE0EB03CC0>]","Kafkaesque Koffka","3.2.7","3","0","2","1024","2","48000","-16","experiment","0","4","even","NA","12151","162107","NA","6007","262819","259814","260816","261818","NA","NA","262819","NA","NA","162109","10151","258803","260315","261317","262319","258766","259803","258671","258766","163109","New experiment","yes","1024"
"<opensesame_plugins.lsl_start.liblsl.LSL_session object at 0x000001DE0EB03CC0>","0","black","[0.0, 0.0]","legacy","0","uniform","60","0","1","0","0","60","60","60","60","1","NA","60","NA","0","1","0","60","60","60","60","60","NA","60","60","1","Wed Nov 17 21:32:56 2021","-7","The main experiment item","yes","experiment.osexp","C:/Users/elus/Demant/+Team OMEXP - Article/ISAAR 2021/Data/experiments","no","mono","no","18","no","white","no","Next","1000","no","768","24","1","24","C:/Users/elus/Documents/RecordingLSL_maybefinal/subject-4.csv","5","[<opensesame_plugins.lsl_start.liblsl.LSL_session object at 0x000001DE0EB03CC0>]","Kafkaesque Koffka","3.2.7","1","0","2","1024","2","48000","-16","experiment","0","4","even","NA","12151","162107","NA","6007","266969","263964","264966","265968","NA","NA","266969","NA","NA","162109","10151","262950","264465","265467","266469","262914","263950","262821","262914","163109","New experiment","yes","1024"
"<opensesame_plugins.lsl_start.liblsl.LSL_session object at 0x000001DE0EB03CC0>","1","black","[0.0, 0.0]","legacy","0","uniform","61","0","1","0","0","61","61","61","61","1","NA","61","NA","0","1","0","61","61","61","61","61","NA","61","61","1","Wed Nov 17 21:32:56 2021","-6.5","The main experiment item","yes","experiment.osexp","C:/Users/elus/Demant/+Team OMEXP - Article/ISAAR 2021/Data/experiments","no","mono","no","18","no","white","no","Next","1000","no","768","25","1","25","C:/Users/elus/Documents/RecordingLSL_maybefinal/subject-4.csv","5","[<opensesame_plugins.lsl_start.liblsl.LSL_session object at 0x000001DE0EB03CC0>]","Kafkaesque Koffka","3.2.7","2","0","2","1024","2","48000","-16","experiment","0","4","even","NA","12151","162107","NA","6007","271121","268113","269118","270120","NA","NA","271121","NA","NA","162109","10151","267101","268614","269619","270621","267064","268102","266971","267064","163109","New experiment","yes","1024"
"<opensesame_plugins.lsl_start.liblsl.LSL_session object at 0x000001DE0EB03CC0>","1","black","[0.0, 0.0]","legacy","0","uniform","62","0","1","0","0","62","62","62","62","1","NA","62","NA","0","1","0","62","62","62","62","62","NA","62","62","1","Wed Nov 17 21:32:56 2021","-6.5","The main experiment item","yes","experiment.osexp","C:/Users/elus/Demant/+Team OMEXP - Article/ISAAR 2021/Data/experiments","no","mono","no","18","no","white","no","Next","1000","no","768","26","1","26","C:/Users/elus/Documents/RecordingLSL_maybefinal/subject-4.csv","5","[<opensesame_plugins.lsl_start.liblsl.LSL_session object at 0x000001DE0EB03CC0>]","Kafkaesque Koffka","3.2.7","3","0","2","1024","2","48000","-16","experiment","0","4","even","NA","12151","162107","NA","6007","275275","272266","273272","274274","NA","NA","275275","NA","NA","162109","10151","271256","272767","273773","274775","271217","272256","271123","271217","163109","New experiment","yes","1024"
"<opensesame_plugins.lsl_start.liblsl.LSL_session object at 0x000001DE0EB03CC0>","1","black","[0.0, 0.0]","legacy","0","uniform","63","0","1","0","0","63","63","63","63","1","NA","63","NA","0","1","0","63","63","63","63","63","NA","63","63","1","Wed Nov 17 21:32:56 2021","-6.5","The main experiment item","yes","experiment.osexp","C:/Users/elus/Demant/+Team OMEXP - Article/ISAAR 2021/Data/experiments","no","mono","no","18","no","white","no","Next","1000","no","768","27","1","27","C:/Users/elus/Documents/RecordingLSL_maybefinal/subject-4.csv","5","[<opensesame_plugins.lsl_start.liblsl.LSL_session object at 0x000001DE0EB03CC0>]","Kafkaesque Koffka","3.2.7","1","0","2","1024","2","48000","-16","experiment","0","4","even","NA","12151","162107","NA","6007","279432","276423","277429","278431","NA","NA","279432","NA","NA","162109","10151","275406","276924","277930","278932","275373","276406","275277","275373","163109","New experiment","yes","1024"
"<opensesame_plugins.lsl_start.liblsl.LSL_session object at 0x000001DE0EB03CC0>","1","black","[0.0, 0.0]","legacy","0","uniform","64","0","1","0","0","64","64","64","64","1","NA","64","NA","0","1","0","64","64","64","64","64","NA","64","64","1","Wed Nov 17 21:32:56 2021","-7","The main experiment item","yes","experiment.osexp","C:/Users/elus/Demant/+Team OMEXP - Article/ISAAR 2021/Data/experiments","no","mono","no","18","no","white","no","Next","1000","no","768","28","1","28","C:/Users/elus/Documents/RecordingLSL_maybefinal/subject-4.csv","5","[<opensesame_plugins.lsl_start.liblsl.LSL_session object at 0x000001DE0EB03CC0>]","Kafkaesque Koffka","3.2.7","2","0","2","1024","2","48000","-16","experiment","0","4","even","NA","12151","162107","NA","6007","283589","280584","281586","282588","NA","NA","283589","NA","NA","162109","10151","279567","281085","282087","283089","279530","280567","279434","279530","163109","New experiment","yes","1024"
"<opensesame_plugins.lsl_start.liblsl.LSL_session object at 0x000001DE0EB03CC0>","1","black","[0.0, 0.0]","legacy","0","uniform","65","0","1","0","0","65","65","65","65","1","NA","65","NA","0","1","0","65","65","65","65","65","NA","65","65","1","Wed Nov 17 21:32:56 2021","-7","The main experiment item","yes","experiment.osexp","C:/Users/elus/Demant/+Team OMEXP - Article/ISAAR 2021/Data/experiments","no","mono","no","18","no","white","no","Next","1000","no","768","29","1","29","C:/Users/elus/Documents/RecordingLSL_maybefinal/subject-4.csv","5","[<opensesame_plugins.lsl_start.liblsl.LSL_session object at 0x000001DE0EB03CC0>]","Kafkaesque Koffka","3.2.7","3","0","2","1024","2","48000","-16","experiment","0","4","even","NA","12151","162107","NA","6007","287739","284734","285736","286738","NA","NA","287739","NA","NA","162109","10151","283723","285235","286237","287239","283687","284723","283591","283687","163109","New experiment","yes","1024"
"<opensesame_plugins.lsl_start.liblsl.LSL_session object at 0x000001DE0EB03CC0>","1","black","[0.0, 0.0]","legacy","0","uniform","66","0","1","0","0","66","66","66","66","1","NA","66","NA","0","1","0","66","66","66","66","66","NA","66","66","1","Wed Nov 17 21:32:56 2021","-7","The main experiment item","yes","experiment.osexp","C:/Users/elus/Demant/+Team OMEXP - Article/ISAAR 2021/Data/experiments","no","mono","no","18","no","white","no","Next","1000","no","768","30","1","30","C:/Users/elus/Documents/RecordingLSL_maybefinal/subject-4.csv","5","[<opensesame_plugins.lsl_start.liblsl.LSL_session object at 0x000001DE0EB03CC0>]","Kafkaesque Koffka","3.2.7","1","0","2","1024","2","48000","-16","experiment","0","4","even","NA","12151","162107","NA","6007","291891","288883","289888","290890","NA","NA","291891","NA","NA","162109","10151","287873","289385","290389","291391","287836","288873","287741","287836","163109","New experiment","yes","1024"
"<opensesame_plugins.lsl_start.liblsl.LSL_session object at 0x000001DE0EB03CC0>","1","black","[0.0, 0.0]","legacy","0","uniform","67","0","1","0","0","67","67","67","67","1","NA","67","NA","0","1","0","67","67","67","67","67","NA","67","67","1","Wed Nov 17 21:32:56 2021","-7.5","The main experiment item","yes","experiment.osexp","C:/Users/elus/Demant/+Team OMEXP - Article/ISAAR 2021/Data/experiments","no","mono","no","18","no","white","no","Next","1000","no","768","31","1","31","C:/Users/elus/Documents/RecordingLSL_maybefinal/subject-4.csv","5","[<opensesame_plugins.lsl_start.liblsl.LSL_session object at 0x000001DE0EB03CC0>]","Kafkaesque Koffka","3.2.7","2","0","2","1024","2","48000","-16","experiment","0","4","even","NA","12151","162107","NA","6007","296042","293037","294039","295041","NA","NA","296042","NA","NA","162109","10151","292023","293538","294540","295542","291987","293025","291893","291987","163109","New experiment","yes","1024"
"<opensesame_plugins.lsl_start.liblsl.LSL_session object at 0x000001DE0EB03CC0>","1","black","[0.0, 0.0]","legacy","0","uniform","68","0","1","0","0","68","68","68","68","1","NA","68","NA","0","1","0","68","68","68","68","68","NA","68","68","1","Wed Nov 17 21:32:56 2021","-7.5","The main experiment item","yes","experiment.osexp","C:/Users/elus/Demant/+Team OMEXP - Article/ISAAR 2021/Data/experiments","no","mono","no","18","no","white","no","Next","1000","no","768","32","1","32","C:/Users/elus/Documents/RecordingLSL_maybefinal/subject-4.csv","5","[<opensesame_plugins.lsl_start.liblsl.LSL_session object at 0x000001DE0EB03CC0>]","Kafkaesque Koffka","3.2.7","3","0","2","1024","2","48000","-16","experiment","0","4","even","NA","12151","162107","NA","6007","300199","297194","298196","299198","NA","NA","300199","NA","NA","162109","10151","296175","297695","298697","299699","296141","297176","296044","296141","163109","New experiment","yes","1024"
"<opensesame_plugins.lsl_start.liblsl.LSL_session object at 0x000001DE0EB03CC0>","1","black","[0.0, 0.0]","legacy","0","uniform","69","0","1","0","0","69","69","69","69","1","NA","69","NA","0","1","0","69","69","69","69","69","NA","69","69","1","Wed Nov 17 21:32:56 2021","-7.5","The main experiment item","yes","experiment.osexp","C:/Users/elus/Demant/+Team OMEXP - Article/ISAAR 2021/Data/experiments","no","mono","no","18","no","white","no","Next","1000","no","768","33","1","33","C:/Users/elus/Documents/RecordingLSL_maybefinal/subject-4.csv","5","[<opensesame_plugins.lsl_start.liblsl.LSL_session object at 0x000001DE0EB03CC0>]","Kafkaesque Koffka","3.2.7","1","0","2","1024","2","48000","-16","experiment","0","4","even","NA","12151","162107","NA","6007","304355","301346","302352","303354","NA","NA","304355","NA","NA","162109","10151","300335","301847","302853","303855","300299","301336","300203","300299","163109","New experiment","yes","1024"
"<opensesame_plugins.lsl_start.liblsl.LSL_session object at 0x000001DE0EB03CC0>","1","black","[0.0, 0.0]","legacy","0","uniform","70","0","1","0","0","70","70","70","70","1","NA","70","NA","0","1","0","70","70","70","70","70","NA","70","70","1","Wed Nov 17 21:32:56 2021","-8","The main experiment item","yes","experiment.osexp","C:/Users/elus/Demant/+Team OMEXP - Article/ISAAR 2021/Data/experiments","no","mono","no","18","no","white","no","Next","1000","no","768","34","1","34","C:/Users/elus/Documents/RecordingLSL_maybefinal/subject-4.csv","5","[<opensesame_plugins.lsl_start.liblsl.LSL_session object at 0x000001DE0EB03CC0>]","Kafkaesque Koffka","3.2.7","2","0","2","1024","2","48000","-16","experiment","0","4","even","NA","12151","162107","NA","6007","308509","305504","306506","307508","NA","NA","308509","NA","NA","162109","10151","304488","306005","307007","308009","304454","305489","304357","304454","163109","New experiment","yes","1024"
"<opensesame_plugins.lsl_start.liblsl.LSL_session object at 0x000001DE0EB03CC0>","1","black","[0.0, 0.0]","legacy","0","uniform","71","0","1","0","0","71","71","71","71","1","NA","71","NA","0","1","0","71","71","71","71","71","NA","71","71","1","Wed Nov 17 21:32:56 2021","-8","The main experiment item","yes","experiment.osexp","C:/Users/elus/Demant/+Team OMEXP - Article/ISAAR 2021/Data/experiments","no","mono","no","18","no","white","no","Next","1000","no","768","35","1","35","C:/Users/elus/Documents/RecordingLSL_maybefinal/subject-4.csv","5","[<opensesame_plugins.lsl_start.liblsl.LSL_session object at 0x000001DE0EB03CC0>]","Kafkaesque Koffka","3.2.7","3","0","2","1024","2","48000","-16","experiment","0","4","even","NA","12151","162107","NA","6007","312658","309654","310656","311657","NA","NA","312658","NA","NA","162109","10151","308642","310155","311157","312158","308608","309644","308511","308608","163109","New experiment","yes","1024"
"<opensesame_plugins.lsl_start.liblsl.LSL_session object at 0x000001DE0EB03CC0>","1","black","[0.0, 0.0]","legacy","0","uniform","72","0","2","0","0","72","72","72","72","2","NA","72","NA","0","2","0","72","72","72","72","72","NA","72","72","2","Wed Nov 17 21:32:56 2021","-6","The main experiment item","yes","experiment.osexp","C:/Users/elus/Demant/+Team OMEXP - Article/ISAAR 2021/Data/experiments","no","mono","no","18","no","white","no","Next","400","no","768","0","2","0","C:/Users/elus/Documents/RecordingLSL_maybefinal/subject-4.csv","10","[<opensesame_plugins.lsl_start.liblsl.LSL_session object at 0x000001DE0EB03CC0>]","Kafkaesque Koffka","3.2.7","1","0","2","1024","2","48000","-16","experiment","0","4","even","NA","12151","312771","NA","6007","317899","314893","315896","316898","NA","NA","317899","NA","NA","312773","10151","313877","315395","316397","317399","313842","314877","312660","313842","313773","New experiment","yes","1024"
"<opensesame_plugins.lsl_start.liblsl.LSL_session object at 0x000001DE0EB03CC0>","1","black","[0.0, 0.0]","legacy","0","uniform","73","0","2","0","0","73","73","73","73","2","NA","73","NA","0","2","0","73","73","73","73","73","NA","73","73","2","Wed Nov 17 21:32:56 2021","-6","The main experiment item","yes","experiment.osexp","C:/Users/elus/Demant/+Team OMEXP - Article/ISAAR 2021/Data/experiments","no","mono","no","18","no","white","no","Next","400","no","768","1","2","1","C:/Users/elus/Documents/RecordingLSL_maybefinal/subject-4.csv","10","[<opensesame_plugins.lsl_start.liblsl.LSL_session object at 0x000001DE0EB03CC0>]","Kafkaesque Koffka","3.2.7","2","0","2","1024","2","48000","-16","experiment","0","4","even","NA","12151","312771","NA","6007","322049","319044","320046","321048","NA","NA","322049","NA","NA","312773","10151","318032","319545","320547","321549","317994","319032","317901","317994","313773","New experiment","yes","1024"
"<opensesame_plugins.lsl_start.liblsl.LSL_session object at 0x000001DE0EB03CC0>","1","black","[0.0, 0.0]","legacy","0","uniform","74","0","2","0","0","74","74","74","74","2","NA","74","NA","0","2","0","74","74","74","74","74","NA","74","74","2","Wed Nov 17 21:32:56 2021","-6","The main experiment item","yes","experiment.osexp","C:/Users/elus/Demant/+Team OMEXP - Article/ISAAR 2021/Data/experiments","no","mono","no","18","no","white","no","Next","400","no","768","2","2","2","C:/Users/elus/Documents/RecordingLSL_maybefinal/subject-4.csv","10","[<opensesame_plugins.lsl_start.liblsl.LSL_session object at 0x000001DE0EB03CC0>]","Kafkaesque Koffka","3.2.7","3","0","2","1024","2","48000","-16","experiment","0","4","even","NA","12151","312771","NA","6007","326201","323196","324198","325200","NA","NA","326201","NA","NA","312773","10151","322185","323697","324699","325701","322146","323185","322051","322146","313773","New experiment","yes","1024"
"<opensesame_plugins.lsl_start.liblsl.LSL_session object at 0x000001DE0EB03CC0>","1","black","[0.0, 0.0]","legacy","0","uniform","75","0","2","0","0","75","75","75","75","2","NA","75","NA","0","2","0","75","75","75","75","75","NA","75","75","2","Wed Nov 17 21:32:56 2021","-7","The main experiment item","yes","experiment.osexp","C:/Users/elus/Demant/+Team OMEXP - Article/ISAAR 2021/Data/experiments","no","mono","no","18","no","white","no","Next","400","no","768","3","2","3","C:/Users/elus/Documents/RecordingLSL_maybefinal/subject-4.csv","10","[<opensesame_plugins.lsl_start.liblsl.LSL_session object at 0x000001DE0EB03CC0>]","Kafkaesque Koffka","3.2.7","1","0","2","1024","2","48000","-16","experiment","0","4","even","NA","12151","312771","NA","6007","330372","327364","328369","329371","NA","NA","330372","NA","NA","312773","10151","326349","327865","328870","329872","326317","327350","326206","326317","313773","New experiment","yes","1024"
"<opensesame_plugins.lsl_start.liblsl.LSL_session object at 0x000001DE0EB03CC0>","1","black","[0.0, 0.0]","legacy","0","uniform","76","0","2","0","0","76","76","76","76","2","NA","76","NA","0","2","0","76","76","76","76","76","NA","76","76","2","Wed Nov 17 21:32:56 2021","-7","The main experiment item","yes","experiment.osexp","C:/Users/elus/Demant/+Team OMEXP - Article/ISAAR 2021/Data/experiments","no","mono","no","18","no","white","no","Next","400","no","768","4","2","4","C:/Users/elus/Documents/RecordingLSL_maybefinal/subject-4.csv","10","[<opensesame_plugins.lsl_start.liblsl.LSL_session object at 0x000001DE0EB03CC0>]","Kafkaesque Koffka","3.2.7","2","0","2","1024","2","48000","-16","experiment","0","4","even","NA","12151","312771","NA","6007","334534","331529","332531","333533","NA","NA","334534","NA","NA","312773","10151","330507","332030","333032","334034","330473","331507","330374","330473","313773","New experiment","yes","1024"
"<opensesame_plugins.lsl_start.liblsl.LSL_session object at 0x000001DE0EB03CC0>","1","black","[0.0, 0.0]","legacy","0","uniform","77","0","2","0","0","77","77","77","77","2","NA","77","NA","0","2","0","77","77","77","77","77","NA","77","77","2","Wed Nov 17 21:32:56 2021","-7","The main experiment item","yes","experiment.osexp","C:/Users/elus/Demant/+Team OMEXP - Article/ISAAR 2021/Data/experiments","no","mono","no","18","no","white","no","Next","400","no","768","5","2","5","C:/Users/elus/Documents/RecordingLSL_maybefinal/subject-4.csv","10","[<opensesame_plugins.lsl_start.liblsl.LSL_session object at 0x000001DE0EB03CC0>]","Kafkaesque Koffka","3.2.7","3","0","2","1024","2","48000","-16","experiment","0","4","even","NA","12151","312771","NA","6007","338690","335684","336687","337689","NA","NA","338690","NA","NA","312773","10151","334670","336186","337188","338190","334631","335670","334536","334631","313773","New experiment","yes","1024"
"<opensesame_plugins.lsl_start.liblsl.LSL_session object at 0x000001DE0EB03CC0>","1","black","[0.0, 0.0]","legacy","0","uniform","78","0","2","0","0","78","78","78","78","2","NA","78","NA","0","2","0","78","78","78","78","78","NA","78","78","2","Wed Nov 17 21:32:56 2021","-8","The main experiment item","yes","experiment.osexp","C:/Users/elus/Demant/+Team OMEXP - Article/ISAAR 2021/Data/experiments","no","mono","no","18","no","white","no","Next","400","no","768","6","2","6","C:/Users/elus/Documents/RecordingLSL_maybefinal/subject-4.csv","10","[<opensesame_plugins.lsl_start.liblsl.LSL_session object at 0x000001DE0EB03CC0>]","Kafkaesque Koffka","3.2.7","1","0","2","1024","2","48000","-16","experiment","0","4","even","NA","12151","312771","NA","6007","342849","339844","340846","341848","NA","NA","342849","NA","NA","312773","10151","338831","340345","341347","342349","338797","339832","338692","338797","313773","New experiment","yes","1024"
"<opensesame_plugins.lsl_start.liblsl.LSL_session object at 0x000001DE0EB03CC0>","0","black","[0.0, 0.0]","legacy","0","uniform","79","0","2","0","0","79","79","79","79","2","NA","79","NA","0","2","0","79","79","79","79","79","NA","79","79","2","Wed Nov 17 21:32:56 2021","-8","The main experiment item","yes","experiment.osexp","C:/Users/elus/Demant/+Team OMEXP - Article/ISAAR 2021/Data/experiments","no","mono","no","18","no","white","no","Next","400","no","768","7","2","7","C:/Users/elus/Documents/RecordingLSL_maybefinal/subject-4.csv","10","[<opensesame_plugins.lsl_start.liblsl.LSL_session object at 0x000001DE0EB03CC0>]","Kafkaesque Koffka","3.2.7","2","0","2","1024","2","48000","-16","experiment","0","4","even","NA","12151","312771","NA","6007","347009","344004","345006","346008","NA","NA","347009","NA","NA","312773","10151","342988","344505","345507","346509","342953","343989","342858","342953","313773","New experiment","yes","1024"
"<opensesame_plugins.lsl_start.liblsl.LSL_session object at 0x000001DE0EB03CC0>","1","black","[0.0, 0.0]","legacy","0","uniform","80","0","2","0","0","80","80","80","80","2","NA","80","NA","0","2","0","80","80","80","80","80","NA","80","80","2","Wed Nov 17 21:32:56 2021","-7.5","The main experiment item","yes","experiment.osexp","C:/Users/elus/Demant/+Team OMEXP - Article/ISAAR 2021/Data/experiments","no","mono","no","18","no","white","no","Next","400","no","768","8","2","8","C:/Users/elus/Documents/RecordingLSL_maybefinal/subject-4.csv","10","[<opensesame_plugins.lsl_start.liblsl.LSL_session object at 0x000001DE0EB03CC0>]","Kafkaesque Koffka","3.2.7","3","0","2","1024","2","48000","-16","experiment","0","4","even","NA","12151","312771","NA","6007","351172","348164","349169","350171","NA","NA","351172","NA","NA","312773","10151","347152","348665","349670","350672","347116","348153","347011","347116","313773","New experiment","yes","1024"
"<opensesame_plugins.lsl_start.liblsl.LSL_session object at 0x000001DE0EB03CC0>","1","black","[0.0, 0.0]","legacy","0","uniform","81","0","2","0","0","81","81","81","81","2","NA","81","NA","0","2","0","81","81","81","81","81","NA","81","81","2","Wed Nov 17 21:32:56 2021","-7.5","The main experiment item","yes","experiment.osexp","C:/Users/elus/Demant/+Team OMEXP - Article/ISAAR 2021/Data/experiments","no","mono","no","18","no","white","no","Next","400","no","768","9","2","9","C:/Users/elus/Documents/RecordingLSL_maybefinal/subject-4.csv","10","[<opensesame_plugins.lsl_start.liblsl.LSL_session object at 0x000001DE0EB03CC0>]","Kafkaesque Koffka","3.2.7","1","0","2","1024","2","48000","-16","experiment","0","4","even","NA","12151","312771","NA","6007","355336","352328","353333","354335","NA","NA","355336","NA","NA","312773","10151","351309","352829","353834","354836","351276","352309","351181","351276","313773","New experiment","yes","1024"
"<opensesame_plugins.lsl_start.liblsl.LSL_session object at 0x000001DE0EB03CC0>","1","black","[0.0, 0.0]","legacy","0","uniform","82","0","2","0","0","82","82","82","82","2","NA","82","NA","0","2","0","82","82","82","82","82","NA","82","82","2","Wed Nov 17 21:32:56 2021","-7.5","The main experiment item","yes","experiment.osexp","C:/Users/elus/Demant/+Team OMEXP - Article/ISAAR 2021/Data/experiments","no","mono","no","18","no","white","no","Next","400","no","768","10","2","10","C:/Users/elus/Documents/RecordingLSL_maybefinal/subject-4.csv","10","[<opensesame_plugins.lsl_start.liblsl.LSL_session object at 0x000001DE0EB03CC0>]","Kafkaesque Koffka","3.2.7","2","0","2","1024","2","48000","-16","experiment","0","4","even","NA","12151","312771","NA","6007","359486","356483","357485","358486","NA","NA","359486","NA","NA","312773","10151","355467","356984","357985","358986","355434","356467","355338","355434","313773","New experiment","yes","1024"
"<opensesame_plugins.lsl_start.liblsl.LSL_session object at 0x000001DE0EB03CC0>","1","black","[0.0, 0.0]","legacy","0","uniform","83","0","2","0","0","83","83","83","83","2","NA","83","NA","0","2","0","83","83","83","83","83","NA","83","83","2","Wed Nov 17 21:32:56 2021","-8","The main experiment item","yes","experiment.osexp","C:/Users/elus/Demant/+Team OMEXP - Article/ISAAR 2021/Data/experiments","no","mono","no","18","no","white","no","Next","400","no","768","11","2","11","C:/Users/elus/Documents/RecordingLSL_maybefinal/subject-4.csv","10","[<opensesame_plugins.lsl_start.liblsl.LSL_session object at 0x000001DE0EB03CC0>]","Kafkaesque Koffka","3.2.7","3","0","2","1024","2","48000","-16","experiment","0","4","even","NA","12151","312771","NA","6007","363642","360634","361639","362641","NA","NA","363642","NA","NA","312773","10151","359621","361135","362140","363142","359584","360623","359491","359584","313773","New experiment","yes","1024"
"<opensesame_plugins.lsl_start.liblsl.LSL_session object at 0x000001DE0EB03CC0>","1","black","[0.0, 0.0]","legacy","0","uniform","84","0","2","0","0","84","84","84","84","2","NA","84","NA","0","2","0","84","84","84","84","84","NA","84","84","2","Wed Nov 17 21:32:56 2021","-8","The main experiment item","yes","experiment.osexp","C:/Users/elus/Demant/+Team OMEXP - Article/ISAAR 2021/Data/experiments","no","mono","no","18","no","white","no","Next","400","no","768","12","2","12","C:/Users/elus/Documents/RecordingLSL_maybefinal/subject-4.csv","10","[<opensesame_plugins.lsl_start.liblsl.LSL_session object at 0x000001DE0EB03CC0>]","Kafkaesque Koffka","3.2.7","1","0","2","1024","2","48000","-16","experiment","0","4","even","NA","12151","312771","NA","6007","367793","364784","365789","366792","NA","NA","367793","NA","NA","312773","10151","363773","365285","366290","367293","363738","364774","363644","363737","313773","New experiment","yes","1024"
"<opensesame_plugins.lsl_start.liblsl.LSL_session object at 0x000001DE0EB03CC0>","1","black","[0.0, 0.0]","legacy","0","uniform","85","0","2","0","0","85","85","85","85","2","NA","85","NA","0","2","0","85","85","85","85","85","NA","85","85","2","Wed Nov 17 21:32:56 2021","-8","The main experiment item","yes","experiment.osexp","C:/Users/elus/Demant/+Team OMEXP - Article/ISAAR 2021/Data/experiments","no","mono","no","18","no","white","no","Next","400","no","768","13","2","13","C:/Users/elus/Documents/RecordingLSL_maybefinal/subject-4.csv","10","[<opensesame_plugins.lsl_start.liblsl.LSL_session object at 0x000001DE0EB03CC0>]","Kafkaesque Koffka","3.2.7","2","0","2","1024","2","48000","-16","experiment","0","4","even","NA","12151","312771","NA","6007","371947","368939","369943","370945","NA","NA","371947","NA","NA","312773","10151","367923","369440","370444","371447","367889","368923","367795","367889","313773","New experiment","yes","1024"
"<opensesame_plugins.lsl_start.liblsl.LSL_session object at 0x000001DE0EB03CC0>","0","black","[0.0, 0.0]","legacy","0","uniform","86","0","2","0","0","86","86","86","86","2","NA","86","NA","0","2","0","86","86","86","86","86","NA","86","86","2","Wed Nov 17 21:32:56 2021","-8.5","The main experiment item","yes","experiment.osexp","C:/Users/elus/Demant/+Team OMEXP - Article/ISAAR 2021/Data/experiments","no","mono","no","18","no","white","no","Next","400","no","768","14","2","14","C:/Users/elus/Documents/RecordingLSL_maybefinal/subject-4.csv","10","[<opensesame_plugins.lsl_start.liblsl.LSL_session object at 0x000001DE0EB03CC0>]","Kafkaesque Koffka","3.2.7","3","0","2","1024","2","48000","-16","experiment","0","4","even","NA","12151","312771","NA","6007","376099","373094","374096","375098","NA","NA","376099","NA","NA","312773","10151","372082","373595","374597","375599","372044","373082","371949","372044","313773","New experiment","yes","1024"
"<opensesame_plugins.lsl_start.liblsl.LSL_session object at 0x000001DE0EB03CC0>","1","black","[0.0, 0.0]","legacy","0","uniform","87","0","2","0","0","87","87","87","87","2","NA","87","NA","0","2","0","87","87","87","87","87","NA","87","87","2","Wed Nov 17 21:32:56 2021","-8","The main experiment item","yes","experiment.osexp","C:/Users/elus/Demant/+Team OMEXP - Article/ISAAR 2021/Data/experiments","no","mono","no","18","no","white","no","Next","400","no","768","15","2","15","C:/Users/elus/Documents/RecordingLSL_maybefinal/subject-4.csv","10","[<opensesame_plugins.lsl_start.liblsl.LSL_session object at 0x000001DE0EB03CC0>]","Kafkaesque Koffka","3.2.7","1","0","2","1024","2","48000","-16","experiment","0","4","even","NA","12151","312771","NA","6007","380256","377247","378253","379255","NA","NA","380256","NA","NA","312773","10151","376235","377748","378754","379756","376199","377236","376104","376199","313773","New experiment","yes","1024"
"<opensesame_plugins.lsl_start.liblsl.LSL_session object at 0x000001DE0EB03CC0>","0","black","[0.0, 0.0]","legacy","0","uniform","88","0","2","0","0","88","88","88","88","2","NA","88","NA","0","2","0","88","88","88","88","88","NA","88","88","2","Wed Nov 17 21:32:56 2021","-8","The main experiment item","yes","experiment.osexp","C:/Users/elus/Demant/+Team OMEXP - Article/ISAAR 2021/Data/experiments","no","mono","no","18","no","white","no","Next","400","no","768","16","2","16","C:/Users/elus/Documents/RecordingLSL_maybefinal/subject-4.csv","10","[<opensesame_plugins.lsl_start.liblsl.LSL_session object at 0x000001DE0EB03CC0>]","Kafkaesque Koffka","3.2.7","2","0","2","1024","2","48000","-16","experiment","0","4","even","NA","12151","312771","NA","6007","384408","381403","382405","383407","NA","NA","384408","NA","NA","312773","10151","380386","381904","382906","383908","380352","381387","380258","380352","313773","New experiment","yes","1024"
"<opensesame_plugins.lsl_start.liblsl.LSL_session object at 0x000001DE0EB03CC0>","1","black","[0.0, 0.0]","legacy","0","uniform","89","0","2","0","0","89","89","89","89","2","NA","89","NA","0","2","0","89","89","89","89","89","NA","89","89","2","Wed Nov 17 21:32:56 2021","-7.5","The main experiment item","yes","experiment.osexp","C:/Users/elus/Demant/+Team OMEXP - Article/ISAAR 2021/Data/experiments","no","mono","no","18","no","white","no","Next","400","no","768","17","2","17","C:/Users/elus/Documents/RecordingLSL_maybefinal/subject-4.csv","10","[<opensesame_plugins.lsl_start.liblsl.LSL_session object at 0x000001DE0EB03CC0>]","Kafkaesque Koffka","3.2.7","3","0","2","1024","2","48000","-16","experiment","0","4","even","NA","12151","312771","NA","6007","388559","385554","386556","387558","NA","NA","388559","NA","NA","312773","10151","384541","386055","387057","388059","384505","385542","384410","384505","313773","New experiment","yes","1024"
"<opensesame_plugins.lsl_start.liblsl.LSL_session object at 0x000001DE0EB03CC0>","1","black","[0.0, 0.0]","legacy","0","uniform","90","0","2","0","0","90","90","90","90","2","NA","90","NA","0","2","0","90","90","90","90","90","NA","90","90","2","Wed Nov 17 21:32:56 2021","-7.5","The main experiment item","yes","experiment.osexp","C:/Users/elus/Demant/+Team OMEXP - Article/ISAAR 2021/Data/experiments","no","mono","no","18","no","white","no","Next","400","no","768","18","2","18","C:/Users/elus/Documents/RecordingLSL_maybefinal/subject-4.csv","10","[<opensesame_plugins.lsl_start.liblsl.LSL_session object at 0x000001DE0EB03CC0>]","Kafkaesque Koffka","3.2.7","1","0","2","1024","2","48000","-16","experiment","0","4","even","NA","12151","312771","NA","6007","392714","389704","390711","391713","NA","NA","392714","NA","NA","312773","10151","388693","390205","391212","392214","388656","389693","388561","388656","313773","New experiment","yes","1024"
"<opensesame_plugins.lsl_start.liblsl.LSL_session object at 0x000001DE0EB03CC0>","1","black","[0.0, 0.0]","legacy","0","uniform","91","0","2","0","0","91","91","91","91","2","NA","91","NA","0","2","0","91","91","91","91","91","NA","91","91","2","Wed Nov 17 21:32:56 2021","-7.5","The main experiment item","yes","experiment.osexp","C:/Users/elus/Demant/+Team OMEXP - Article/ISAAR 2021/Data/experiments","no","mono","no","18","no","white","no","Next","400","no","768","19","2","19","C:/Users/elus/Documents/RecordingLSL_maybefinal/subject-4.csv","10","[<opensesame_plugins.lsl_start.liblsl.LSL_session object at 0x000001DE0EB03CC0>]","Kafkaesque Koffka","3.2.7","2","0","2","1024","2","48000","-16","experiment","0","4","even","NA","12151","312771","NA","6007","396871","393864","394868","395870","NA","NA","396871","NA","NA","312773","10151","392846","394365","395369","396371","392813","393846","392716","392813","313773","New experiment","yes","1024"
"<opensesame_plugins.lsl_start.liblsl.LSL_session object at 0x000001DE0EB03CC0>","1","black","[0.0, 0.0]","legacy","0","uniform","92","0","2","0","0","92","92","92","92","2","NA","92","NA","0","2","0","92","92","92","92","92","NA","92","92","2","Wed Nov 17 21:32:56 2021","-8","The main experiment item","yes","experiment.osexp","C:/Users/elus/Demant/+Team OMEXP - Article/ISAAR 2021/Data/experiments","no","mono","no","18","no","white","no","Next","400","no","768","20","2","20","C:/Users/elus/Documents/RecordingLSL_maybefinal/subject-4.csv","10","[<opensesame_plugins.lsl_start.liblsl.LSL_session object at 0x000001DE0EB03CC0>]","Kafkaesque Koffka","3.2.7","3","0","2","1024","2","48000","-16","experiment","0","4","even","NA","12151","312771","NA","6007","401029","398024","399026","400028","NA","NA","401029","NA","NA","312773","10151","397004","398525","399527","400529","396969","398005","396873","396969","313773","New experiment","yes","1024"
"<opensesame_plugins.lsl_start.liblsl.LSL_session object at 0x000001DE0EB03CC0>","0","black","[0.0, 0.0]","legacy","0","uniform","93","0","2","0","0","93","93","93","93","2","NA","93","NA","0","2","0","93","93","93","93","93","NA","93","93","2","Wed Nov 17 21:32:56 2021","-8","The main experiment item","yes","experiment.osexp","C:/Users/elus/Demant/+Team OMEXP - Article/ISAAR 2021/Data/experiments","no","mono","no","18","no","white","no","Next","400","no","768","21","2","21","C:/Users/elus/Documents/RecordingLSL_maybefinal/subject-4.csv","10","[<opensesame_plugins.lsl_start.liblsl.LSL_session object at 0x000001DE0EB03CC0>]","Kafkaesque Koffka","3.2.7","1","0","2","1024","2","48000","-16","experiment","0","4","even","NA","12151","312771","NA","6007","405181","402176","403178","404180","NA","NA","405181","NA","NA","312773","10151","401164","402677","403679","404681","401129","402165","401034","401129","313773","New experiment","yes","1024"
"<opensesame_plugins.lsl_start.liblsl.LSL_session object at 0x000001DE0EB03CC0>","0","black","[0.0, 0.0]","legacy","0","uniform","94","0","2","0","0","94","94","94","94","2","NA","94","NA","0","2","0","94","94","94","94","94","NA","94","94","2","Wed Nov 17 21:32:56 2021","-7.5","The main experiment item","yes","experiment.osexp","C:/Users/elus/Demant/+Team OMEXP - Article/ISAAR 2021/Data/experiments","no","mono","no","18","no","white","no","Next","400","no","768","22","2","22","C:/Users/elus/Documents/RecordingLSL_maybefinal/subject-4.csv","10","[<opensesame_plugins.lsl_start.liblsl.LSL_session object at 0x000001DE0EB03CC0>]","Kafkaesque Koffka","3.2.7","2","0","2","1024","2","48000","-16","experiment","0","4","even","NA","12151","312771","NA","6007","409334","406326","407331","408333","NA","NA","409334","NA","NA","312773","10151","405316","406827","407832","408834","405278","406316","405183","405278","313773","New experiment","yes","1024"
"<opensesame_plugins.lsl_start.liblsl.LSL_session object at 0x000001DE0EB03CC0>","1","black","[0.0, 0.0]","legacy","0","uniform","95","0","2","0","0","95","95","95","95","2","NA","95","NA","0","2","0","95","95","95","95","95","NA","95","95","2","Wed Nov 17 21:32:56 2021","-7","The main experiment item","yes","experiment.osexp","C:/Users/elus/Demant/+Team OMEXP - Article/ISAAR 2021/Data/experiments","no","mono","no","18","no","white","no","Next","400","no","768","23","2","23","C:/Users/elus/Documents/RecordingLSL_maybefinal/subject-4.csv","10","[<opensesame_plugins.lsl_start.liblsl.LSL_session object at 0x000001DE0EB03CC0>]","Kafkaesque Koffka","3.2.7","3","0","2","1024","2","48000","-16","experiment","0","4","even","NA","12151","312771","NA","6007","413485","410477","411482","412484","NA","NA","413485","NA","NA","312773","10151","409465","410978","411983","412985","409430","410466","409336","409430","313773","New experiment","yes","1024"
"<opensesame_plugins.lsl_start.liblsl.LSL_session object at 0x000001DE0EB03CC0>","1","black","[0.0, 0.0]","legacy","0","uniform","96","0","2","0","0","96","96","96","96","2","NA","96","NA","0","2","0","96","96","96","96","96","NA","96","96","2","Wed Nov 17 21:32:56 2021","-7","The main experiment item","yes","experiment.osexp","C:/Users/elus/Demant/+Team OMEXP - Article/ISAAR 2021/Data/experiments","no","mono","no","18","no","white","no","Next","400","no","768","24","2","24","C:/Users/elus/Documents/RecordingLSL_maybefinal/subject-4.csv","10","[<opensesame_plugins.lsl_start.liblsl.LSL_session object at 0x000001DE0EB03CC0>]","Kafkaesque Koffka","3.2.7","1","0","2","1024","2","48000","-16","experiment","0","4","even","NA","12151","312771","NA","6007","417642","414635","415639","416641","NA","NA","417642","NA","NA","312773","10151","413616","415136","416140","417142","413583","414616","413487","413583","313773","New experiment","yes","1024"
"<opensesame_plugins.lsl_start.liblsl.LSL_session object at 0x000001DE0EB03CC0>","1","black","[0.0, 0.0]","legacy","0","uniform","97","0","2","0","0","97","97","97","97","2","NA","97","NA","0","2","0","97","97","97","97","97","NA","97","97","2","Wed Nov 17 21:32:56 2021","-7","The main experiment item","yes","experiment.osexp","C:/Users/elus/Demant/+Team OMEXP - Article/ISAAR 2021/Data/experiments","no","mono","no","18","no","white","no","Next","400","no","768","25","2","25","C:/Users/elus/Documents/RecordingLSL_maybefinal/subject-4.csv","10","[<opensesame_plugins.lsl_start.liblsl.LSL_session object at 0x000001DE0EB03CC0>]","Kafkaesque Koffka","3.2.7","2","0","2","1024","2","48000","-16","experiment","0","4","even","NA","12151","312771","NA","6007","421798","418793","419795","420797","NA","NA","421798","NA","NA","312773","10151","417774","419294","420296","421298","417737","418775","417644","417737","313773","New experiment","yes","1024"
"<opensesame_plugins.lsl_start.liblsl.LSL_session object at 0x000001DE0EB03CC0>","1","black","[0.0, 0.0]","legacy","0","uniform","98","0","2","0","0","98","98","98","98","2","NA","98","NA","0","2","0","98","98","98","98","98","NA","98","98","2","Wed Nov 17 21:32:56 2021","-7.5","The main experiment item","yes","experiment.osexp","C:/Users/elus/Demant/+Team OMEXP - Article/ISAAR 2021/Data/experiments","no","mono","no","18","no","white","no","Next","400","no","768","26","2","26","C:/Users/elus/Documents/RecordingLSL_maybefinal/subject-4.csv","10","[<opensesame_plugins.lsl_start.liblsl.LSL_session object at 0x000001DE0EB03CC0>]","Kafkaesque Koffka","3.2.7","3","0","2","1024","2","48000","-16","experiment","0","4","even","NA","12151","312771","NA","6007","425950","422945","423947","424949","NA","NA","425950","NA","NA","312773","10151","421933","423446","424448","425450","421895","422934","421800","421895","313773","New experiment","yes","1024"
"<opensesame_plugins.lsl_start.liblsl.LSL_session object at 0x000001DE0EB03CC0>","1","black","[0.0, 0.0]","legacy","0","uniform","99","0","2","0","0","99","99","99","99","2","NA","99","NA","0","2","0","99","99","99","99","99","NA","99","99","2","Wed Nov 17 21:32:56 2021","-7.5","The main experiment item","yes","experiment.osexp","C:/Users/elus/Demant/+Team OMEXP - Article/ISAAR 2021/Data/experiments","no","mono","no","18","no","white","no","Next","400","no","768","27","2","27","C:/Users/elus/Documents/RecordingLSL_maybefinal/subject-4.csv","10","[<opensesame_plugins.lsl_start.liblsl.LSL_session object at 0x000001DE0EB03CC0>]","Kafkaesque Koffka","3.2.7","1","0","2","1024","2","48000","-16","experiment","0","4","even","NA","12151","312771","NA","6007","430105","427095","428102","429104","NA","NA","430105","NA","NA","312773","10151","426083","427597","428603","429605","426048","427084","425952","426048","313773","New experiment","yes","1024"
"<opensesame_plugins.lsl_start.liblsl.LSL_session object at 0x000001DE0EB03CC0>","1","black","[0.0, 0.0]","legacy","0","uniform","100","0","2","0","0","100","100","100","100","2","NA","100","NA","0","2","0","100","100","100","100","100","NA","100","100","2","Wed Nov 17 21:32:56 2021","-7.5","The main experiment item","yes","experiment.osexp","C:/Users/elus/Demant/+Team OMEXP - Article/ISAAR 2021/Data/experiments","no","mono","no","18","no","white","no","Next","400","no","768","28","2","28","C:/Users/elus/Documents/RecordingLSL_maybefinal/subject-4.csv","10","[<opensesame_plugins.lsl_start.liblsl.LSL_session object at 0x000001DE0EB03CC0>]","Kafkaesque Koffka","3.2.7","2","0","2","1024","2","48000","-16","experiment","0","4","even","NA","12151","312771","NA","6007","434263","431256","432260","433262","NA","NA","434263","NA","NA","312773","10151","430236","431757","432761","433763","430202","431236","430107","430202","313773","New experiment","yes","1024"
"<opensesame_plugins.lsl_start.liblsl.LSL_session object at 0x000001DE0EB03CC0>","1","black","[0.0, 0.0]","legacy","0","uniform","101","0","2","0","0","101","101","101","101","2","NA","101","NA","0","2","0","101","101","101","101","101","NA","101","101","2","Wed Nov 17 21:32:56 2021","-8","The main experiment item","yes","experiment.osexp","C:/Users/elus/Demant/+Team OMEXP - Article/ISAAR 2021/Data/experiments","no","mono","no","18","no","white","no","Next","400","no","768","29","2","29","C:/Users/elus/Documents/RecordingLSL_maybefinal/subject-4.csv","10","[<opensesame_plugins.lsl_start.liblsl.LSL_session object at 0x000001DE0EB03CC0>]","Kafkaesque Koffka","3.2.7","3","0","2","1024","2","48000","-16","experiment","0","4","even","NA","12151","312771","NA","6007","438419","435414","436416","437418","NA","NA","438419","NA","NA","312773","10151","434396","435915","436917","437919","434361","435397","434265","434361","313773","New experiment","yes","1024"
"<opensesame_plugins.lsl_start.liblsl.LSL_session object at 0x000001DE0EB03CC0>","1","black","[0.0, 0.0]","legacy","0","uniform","102","0","2","0","0","102","102","102","102","2","NA","102","NA","0","2","0","102","102","102","102","102","NA","102","102","2","Wed Nov 17 21:32:56 2021","-8","The main experiment item","yes","experiment.osexp","C:/Users/elus/Demant/+Team OMEXP - Article/ISAAR 2021/Data/experiments","no","mono","no","18","no","white","no","Next","400","no","768","30","2","30","C:/Users/elus/Documents/RecordingLSL_maybefinal/subject-4.csv","10","[<opensesame_plugins.lsl_start.liblsl.LSL_session object at 0x000001DE0EB03CC0>]","Kafkaesque Koffka","3.2.7","1","0","2","1024","2","48000","-16","experiment","0","4","even","NA","12151","312771","NA","6007","442572","439564","440570","441571","NA","NA","442572","NA","NA","312773","10151","438553","440065","441071","442072","438516","439554","438421","438516","313773","New experiment","yes","1024"
