"LSL","answer","background","calibration","canvas_backend","compensation","coordinates","count_change","count_cond_loop","count_condition","count_end","count_experiment","count_generate_answer","count_neutral","count_neutral_2","count_neutral_3","count_new_adaptive_init","count_new_calibration_light","count_new_logger","count_new_lsl_start_1","count_new_lsl_stop","count_new_sketchpad","count_new_sketchpad_1","count_new_sketchpad_2","count_sig1","count_sig2","count_sig3","count_sound_generation","count_stimulus","count_tracking","count_trial","count_trial_loop","datetime","depth","description","disable_garbage_collection","experiment_file","experiment_path","font_bold","font_family","font_italic","font_size","font_underline","foreground","form_clicks","form_response","frequency","fullscreen","height","live_row","live_row_cond_loop","live_row_trial_loop","logfile","mod_freq","notifiers","opensesame_codename","opensesame_version","position","repeat_cycle","round_decimals","sound_buf_size","sound_channels","sound_freq","sound_sample_size","start","stop","subject_nr","subject_parity","time_change","time_cond_loop","time_condition","time_end","time_experiment","time_generate_answer","time_neutral","time_neutral_2","time_neutral_3","time_new_adaptive_init","time_new_calibration_light","time_new_logger","time_new_lsl_start_1","time_new_lsl_stop","time_new_sketchpad","time_new_sketchpad_1","time_new_sketchpad_2","time_sig1","time_sig2","time_sig3","time_sound_generation","time_stimulus","time_tracking","time_trial","time_trial_loop","title","uniform_coordinates","width"
"<opensesame_plugins.lsl_start.liblsl.LSL_session object at 0x00000202D9F03C50>","1","black","[0.0, 0.0]","legacy","0","uniform","0","0","0","0","0","0","0","0","0","0","NA","0","NA","0","0","0","0","0","0","0","0","NA","0","0","0","Wed Nov 17 22:31:38 2021","-6","The main experiment item","yes","experiment.osexp","C:/Users/elus/Demant/+Team OMEXP - Article/ISAAR 2021/Data/experiments","no","mono","no","18","no","white","no","Next","400","no","768","0","0","0","C:/Users/elus/Documents/RecordingLSL_maybefinal/subject-9.csv","5","[<opensesame_plugins.lsl_start.liblsl.LSL_session object at 0x00000202D9F03C50>]","Kafkaesque Koffka","3.2.7","1","0","2","1024","2","48000","-16","experiment","0","9","odd","NA","11335","11363","NA","5684","16457","13452","14454","15456","NA","NA","16457","NA","NA","11364","9335","12444","13953","14955","15957","12411","13444","NA","12411","12364","New experiment","yes","1024"
"<opensesame_plugins.lsl_start.liblsl.LSL_session object at 0x00000202D9F03C50>","1","black","[0.0, 0.0]","legacy","0","uniform","1","0","0","0","0","1","1","1","1","0","NA","1","NA","0","0","0","1","1","1","1","1","NA","1","1","0","Wed Nov 17 22:31:38 2021","-6","The main experiment item","yes","experiment.osexp","C:/Users/elus/Demant/+Team OMEXP - Article/ISAAR 2021/Data/experiments","no","mono","no","18","no","white","no","Next","400","no","768","1","0","1","C:/Users/elus/Documents/RecordingLSL_maybefinal/subject-9.csv","5","[<opensesame_plugins.lsl_start.liblsl.LSL_session object at 0x00000202D9F03C50>]","Kafkaesque Koffka","3.2.7","2","0","2","1024","2","48000","-16","experiment","0","9","odd","NA","11335","11363","NA","5684","20585","17580","18582","19584","NA","NA","20585","NA","NA","11364","9335","16568","18081","19083","20085","16540","17568","16462","16540","12364","New experiment","yes","1024"
"<opensesame_plugins.lsl_start.liblsl.LSL_session object at 0x00000202D9F03C50>","1","black","[0.0, 0.0]","legacy","0","uniform","2","0","0","0","0","2","2","2","2","0","NA","2","NA","0","0","0","2","2","2","2","2","NA","2","2","0","Wed Nov 17 22:31:38 2021","-6","The main experiment item","yes","experiment.osexp","C:/Users/elus/Demant/+Team OMEXP - Article/ISAAR 2021/Data/experiments","no","mono","no","18","no","white","no","Next","400","no","768","2","0","2","C:/Users/elus/Documents/RecordingLSL_maybefinal/subject-9.csv","5","[<opensesame_plugins.lsl_start.liblsl.LSL_session object at 0x00000202D9F03C50>]","Kafkaesque Koffka","3.2.7","3","0","2","1024","2","48000","-16","experiment","0","9","odd","NA","11335","11363","NA","5684","24715","21711","22712","23714","NA","NA","24715","NA","NA","11364","9335","20701","22211","23213","24215","20671","21701","20588","20671","12364","New experiment","yes","1024"
"<opensesame_plugins.lsl_start.liblsl.LSL_session object at 0x00000202D9F03C50>","1","black","[0.0, 0.0]","legacy","0","uniform","3","0","0","0","0","3","3","3","3","0","NA","3","NA","0","0","0","3","3","3","3","3","NA","3","3","0","Wed Nov 17 22:31:38 2021","-7","The main experiment item","yes","experiment.osexp","C:/Users/elus/Demant/+Team OMEXP - Article/ISAAR 2021/Data/experiments","no","mono","no","18","no","white","no","Next","400","no","768","3","0","3","C:/Users/elus/Documents/RecordingLSL_maybefinal/subject-9.csv","5","[<opensesame_plugins.lsl_start.liblsl.LSL_session object at 0x00000202D9F03C50>]","Kafkaesque Koffka","3.2.7","1","0","2","1024","2","48000","-16","experiment","0","9","odd","NA","11335","11363","NA","5684","28856","25850","26853","27855","NA","NA","28856","NA","NA","11364","9335","24837","26352","27354","28356","24808","25837","24717","24808","12364","New experiment","yes","1024"
"<opensesame_plugins.lsl_start.liblsl.LSL_session object at 0x00000202D9F03C50>","1","black","[0.0, 0.0]","legacy","0","uniform","4","0","0","0","0","4","4","4","4","0","NA","4","NA","0","0","0","4","4","4","4","4","NA","4","4","0","Wed Nov 17 22:31:38 2021","-7","The main experiment item","yes","experiment.osexp","C:/Users/elus/Demant/+Team OMEXP - Article/ISAAR 2021/Data/experiments","no","mono","no","18","no","white","no","Next","400","no","768","4","0","4","C:/Users/elus/Documents/RecordingLSL_maybefinal/subject-9.csv","5","[<opensesame_plugins.lsl_start.liblsl.LSL_session object at 0x00000202D9F03C50>]","Kafkaesque Koffka","3.2.7","2","0","2","1024","2","48000","-16","experiment","0","9","odd","NA","11335","11363","NA","5684","32984","29973","30975","31983","NA","NA","32984","NA","NA","11364","9335","28963","30474","31481","32484","28937","29963","28858","28937","12364","New experiment","yes","1024"
"<opensesame_plugins.lsl_start.liblsl.LSL_session object at 0x00000202D9F03C50>","1","black","[0.0, 0.0]","legacy","0","uniform","5","0","0","0","0","5","5","5","5","0","NA","5","NA","0","0","0","5","5","5","5","5","NA","5","5","0","Wed Nov 17 22:31:38 2021","-7","The main experiment item","yes","experiment.osexp","C:/Users/elus/Demant/+Team OMEXP - Article/ISAAR 2021/Data/experiments","no","mono","no","18","no","white","no","Next","400","no","768","5","0","5","C:/Users/elus/Documents/RecordingLSL_maybefinal/subject-9.csv","5","[<opensesame_plugins.lsl_start.liblsl.LSL_session object at 0x00000202D9F03C50>]","Kafkaesque Koffka","3.2.7","3","0","2","1024","2","48000","-16","experiment","0","9","odd","NA","11335","11363","NA","5684","37119","34110","35112","36118","NA","NA","37119","NA","NA","11364","9335","33094","34611","35617","36619","33067","34095","32988","33067","12364","New experiment","yes","1024"
"<opensesame_plugins.lsl_start.liblsl.LSL_session object at 0x00000202D9F03C50>","1","black","[0.0, 0.0]","legacy","0","uniform","6","0","0","0","0","6","6","6","6","0","NA","6","NA","0","0","0","6","6","6","6","6","NA","6","6","0","Wed Nov 17 22:31:38 2021","-8","The main experiment item","yes","experiment.osexp","C:/Users/elus/Demant/+Team OMEXP - Article/ISAAR 2021/Data/experiments","no","mono","no","18","no","white","no","Next","400","no","768","6","0","6","C:/Users/elus/Documents/RecordingLSL_maybefinal/subject-9.csv","5","[<opensesame_plugins.lsl_start.liblsl.LSL_session object at 0x00000202D9F03C50>]","Kafkaesque Koffka","3.2.7","1","0","2","1024","2","48000","-16","experiment","0","9","odd","NA","11335","11363","NA","5684","41255","38250","39252","40254","NA","NA","41255","NA","NA","11364","9335","37241","38751","39753","40755","37213","38241","37123","37213","12364","New experiment","yes","1024"
"<opensesame_plugins.lsl_start.liblsl.LSL_session object at 0x00000202D9F03C50>","1","black","[0.0, 0.0]","legacy","0","uniform","7","0","0","0","0","7","7","7","7","0","NA","7","NA","0","0","0","7","7","7","7","7","NA","7","7","0","Wed Nov 17 22:31:38 2021","-8","The main experiment item","yes","experiment.osexp","C:/Users/elus/Demant/+Team OMEXP - Article/ISAAR 2021/Data/experiments","no","mono","no","18","no","white","no","Next","400","no","768","7","0","7","C:/Users/elus/Documents/RecordingLSL_maybefinal/subject-9.csv","5","[<opensesame_plugins.lsl_start.liblsl.LSL_session object at 0x00000202D9F03C50>]","Kafkaesque Koffka","3.2.7","2","0","2","1024","2","48000","-16","experiment","0","9","odd","NA","11335","11363","NA","5684","45385","42380","43382","44384","NA","NA","45385","NA","NA","11364","9335","41365","42881","43883","44885","41338","42365","41257","41338","12364","New experiment","yes","1024"
"<opensesame_plugins.lsl_start.liblsl.LSL_session object at 0x00000202D9F03C50>","0","black","[0.0, 0.0]","legacy","0","uniform","8","0","0","0","0","8","8","8","8","0","NA","8","NA","0","0","0","8","8","8","8","8","NA","8","8","0","Wed Nov 17 22:31:38 2021","-8","The main experiment item","yes","experiment.osexp","C:/Users/elus/Demant/+Team OMEXP - Article/ISAAR 2021/Data/experiments","no","mono","no","18","no","white","no","Next","400","no","768","8","0","8","C:/Users/elus/Documents/RecordingLSL_maybefinal/subject-9.csv","5","[<opensesame_plugins.lsl_start.liblsl.LSL_session object at 0x00000202D9F03C50>]","Kafkaesque Koffka","3.2.7","3","0","2","1024","2","48000","-16","experiment","0","9","odd","NA","11335","11363","NA","5684","49525","46510","47517","48524","NA","NA","49525","NA","NA","11364","9335","45493","47016","48023","49025","45467","46493","45387","45467","12364","New experiment","yes","1024"
"<opensesame_plugins.lsl_start.liblsl.LSL_session object at 0x00000202D9F03C50>","1","black","[0.0, 0.0]","legacy","0","uniform","9","0","0","0","0","9","9","9","9","0","NA","9","NA","0","0","0","9","9","9","9","9","NA","9","9","0","Wed Nov 17 22:31:38 2021","-7.5","The main experiment item","yes","experiment.osexp","C:/Users/elus/Demant/+Team OMEXP - Article/ISAAR 2021/Data/experiments","no","mono","no","18","no","white","no","Next","400","no","768","9","0","9","C:/Users/elus/Documents/RecordingLSL_maybefinal/subject-9.csv","5","[<opensesame_plugins.lsl_start.liblsl.LSL_session object at 0x00000202D9F03C50>]","Kafkaesque Koffka","3.2.7","1","0","2","1024","2","48000","-16","experiment","0","9","odd","NA","11335","11363","NA","5684","53664","50660","51662","52663","NA","NA","53664","NA","NA","11364","9335","49643","51161","52162","53164","49617","50643","49527","49617","12364","New experiment","yes","1024"
"<opensesame_plugins.lsl_start.liblsl.LSL_session object at 0x00000202D9F03C50>","0","black","[0.0, 0.0]","legacy","0","uniform","10","0","0","0","0","10","10","10","10","0","NA","10","NA","0","0","0","10","10","10","10","10","NA","10","10","0","Wed Nov 17 22:31:38 2021","-7.5","The main experiment item","yes","experiment.osexp","C:/Users/elus/Demant/+Team OMEXP - Article/ISAAR 2021/Data/experiments","no","mono","no","18","no","white","no","Next","400","no","768","10","0","10","C:/Users/elus/Documents/RecordingLSL_maybefinal/subject-9.csv","5","[<opensesame_plugins.lsl_start.liblsl.LSL_session object at 0x00000202D9F03C50>]","Kafkaesque Koffka","3.2.7","2","0","2","1024","2","48000","-16","experiment","0","9","odd","NA","11335","11363","NA","5684","57795","54790","55792","56794","NA","NA","57795","NA","NA","11364","9335","53774","55291","56293","57295","53748","54774","53666","53747","12364","New experiment","yes","1024"
"<opensesame_plugins.lsl_start.liblsl.LSL_session object at 0x00000202D9F03C50>","1","black","[0.0, 0.0]","legacy","0","uniform","11","0","0","0","0","11","11","11","11","0","NA","11","NA","0","0","0","11","11","11","11","11","NA","11","11","0","Wed Nov 17 22:31:38 2021","-7","The main experiment item","yes","experiment.osexp","C:/Users/elus/Demant/+Team OMEXP - Article/ISAAR 2021/Data/experiments","no","mono","no","18","no","white","no","Next","400","no","768","11","0","11","C:/Users/elus/Documents/RecordingLSL_maybefinal/subject-9.csv","5","[<opensesame_plugins.lsl_start.liblsl.LSL_session object at 0x00000202D9F03C50>]","Kafkaesque Koffka","3.2.7","3","0","2","1024","2","48000","-16","experiment","0","9","odd","NA","11335","11363","NA","5684","61926","58921","59923","60925","NA","NA","61926","NA","NA","11364","9335","57908","59422","60424","61426","57882","58908","57805","57882","12364","New experiment","yes","1024"
"<opensesame_plugins.lsl_start.liblsl.LSL_session object at 0x00000202D9F03C50>","0","black","[0.0, 0.0]","legacy","0","uniform","12","0","0","0","0","12","12","12","12","0","NA","12","NA","0","0","0","12","12","12","12","12","NA","12","12","0","Wed Nov 17 22:31:38 2021","-7","The main experiment item","yes","experiment.osexp","C:/Users/elus/Demant/+Team OMEXP - Article/ISAAR 2021/Data/experiments","no","mono","no","18","no","white","no","Next","400","no","768","12","0","12","C:/Users/elus/Documents/RecordingLSL_maybefinal/subject-9.csv","5","[<opensesame_plugins.lsl_start.liblsl.LSL_session object at 0x00000202D9F03C50>]","Kafkaesque Koffka","3.2.7","1","0","2","1024","2","48000","-16","experiment","0","9","odd","NA","11335","11363","NA","5684","66065","63040","64047","65064","NA","NA","66065","NA","NA","11364","9335","62031","63546","64563","65565","62005","63031","61928","62005","12364","New experiment","yes","1024"
"<opensesame_plugins.lsl_start.liblsl.LSL_session object at 0x00000202D9F03C50>","1","black","[0.0, 0.0]","legacy","0","uniform","13","0","0","0","0","13","13","13","13","0","NA","13","NA","0","0","0","13","13","13","13","13","NA","13","13","0","Wed Nov 17 22:31:38 2021","-6.5","The main experiment item","yes","experiment.osexp","C:/Users/elus/Demant/+Team OMEXP - Article/ISAAR 2021/Data/experiments","no","mono","no","18","no","white","no","Next","400","no","768","13","0","13","C:/Users/elus/Documents/RecordingLSL_maybefinal/subject-9.csv","5","[<opensesame_plugins.lsl_start.liblsl.LSL_session object at 0x00000202D9F03C50>]","Kafkaesque Koffka","3.2.7","2","0","2","1024","2","48000","-16","experiment","0","9","odd","NA","11335","11363","NA","5684","70185","67180","68182","69184","NA","NA","70185","NA","NA","11364","9335","66172","67681","68683","69685","66146","67172","66067","66146","12364","New experiment","yes","1024"
"<opensesame_plugins.lsl_start.liblsl.LSL_session object at 0x00000202D9F03C50>","0","black","[0.0, 0.0]","legacy","0","uniform","14","0","0","0","0","14","14","14","14","0","NA","14","NA","0","0","0","14","14","14","14","14","NA","14","14","0","Wed Nov 17 22:31:38 2021","-6.5","The main experiment item","yes","experiment.osexp","C:/Users/elus/Demant/+Team OMEXP - Article/ISAAR 2021/Data/experiments","no","mono","no","18","no","white","no","Next","400","no","768","14","0","14","C:/Users/elus/Documents/RecordingLSL_maybefinal/subject-9.csv","5","[<opensesame_plugins.lsl_start.liblsl.LSL_session object at 0x00000202D9F03C50>]","Kafkaesque Koffka","3.2.7","3","0","2","1024","2","48000","-16","experiment","0","9","odd","NA","11335","11363","NA","5684","74315","71310","72312","73314","NA","NA","74315","NA","NA","11364","9335","70297","71811","72813","73815","70271","71297","70194","70271","12364","New experiment","yes","1024"
"<opensesame_plugins.lsl_start.liblsl.LSL_session object at 0x00000202D9F03C50>","1","black","[0.0, 0.0]","legacy","0","uniform","15","0","0","0","0","15","15","15","15","0","NA","15","NA","0","0","0","15","15","15","15","15","NA","15","15","0","Wed Nov 17 22:31:38 2021","-6","The main experiment item","yes","experiment.osexp","C:/Users/elus/Demant/+Team OMEXP - Article/ISAAR 2021/Data/experiments","no","mono","no","18","no","white","no","Next","400","no","768","15","0","15","C:/Users/elus/Documents/RecordingLSL_maybefinal/subject-9.csv","5","[<opensesame_plugins.lsl_start.liblsl.LSL_session object at 0x00000202D9F03C50>]","Kafkaesque Koffka","3.2.7","1","0","2","1024","2","48000","-16","experiment","0","9","odd","NA","11335","11363","NA","5684","78445","75440","76442","77444","NA","NA","78445","NA","NA","11364","9335","74427","75941","76943","77945","74398","75427","74319","74398","12364","New experiment","yes","1024"
"<opensesame_plugins.lsl_start.liblsl.LSL_session object at 0x00000202D9F03C50>","1","black","[0.0, 0.0]","legacy","0","uniform","16","0","0","0","0","16","16","16","16","0","NA","16","NA","0","0","0","16","16","16","16","16","NA","16","16","0","Wed Nov 17 22:31:38 2021","-6","The main experiment item","yes","experiment.osexp","C:/Users/elus/Demant/+Team OMEXP - Article/ISAAR 2021/Data/experiments","no","mono","no","18","no","white","no","Next","400","no","768","16","0","16","C:/Users/elus/Documents/RecordingLSL_maybefinal/subject-9.csv","5","[<opensesame_plugins.lsl_start.liblsl.LSL_session object at 0x00000202D9F03C50>]","Kafkaesque Koffka","3.2.7","2","0","2","1024","2","48000","-16","experiment","0","9","odd","NA","11335","11363","NA","5684","82576","79571","80573","81575","NA","NA","82576","NA","NA","11364","9335","78554","80072","81074","82076","78527","79554","78449","78527","12364","New experiment","yes","1024"
"<opensesame_plugins.lsl_start.liblsl.LSL_session object at 0x00000202D9F03C50>","1","black","[0.0, 0.0]","legacy","0","uniform","17","0","0","0","0","17","17","17","17","0","NA","17","NA","0","0","0","17","17","17","17","17","NA","17","17","0","Wed Nov 17 22:31:38 2021","-6","The main experiment item","yes","experiment.osexp","C:/Users/elus/Demant/+Team OMEXP - Article/ISAAR 2021/Data/experiments","no","mono","no","18","no","white","no","Next","400","no","768","17","0","17","C:/Users/elus/Documents/RecordingLSL_maybefinal/subject-9.csv","5","[<opensesame_plugins.lsl_start.liblsl.LSL_session object at 0x00000202D9F03C50>]","Kafkaesque Koffka","3.2.7","3","0","2","1024","2","48000","-16","experiment","0","9","odd","NA","11335","11363","NA","5684","86700","83690","84697","85699","NA","NA","86700","NA","NA","11364","9335","82682","84196","85198","86200","82656","83682","82578","82656","12364","New experiment","yes","1024"
"<opensesame_plugins.lsl_start.liblsl.LSL_session object at 0x00000202D9F03C50>","0","black","[0.0, 0.0]","legacy","0","uniform","18","0","0","0","0","18","18","18","18","0","NA","18","NA","0","0","0","18","18","18","18","18","NA","18","18","0","Wed Nov 17 22:31:38 2021","-6.5","The main experiment item","yes","experiment.osexp","C:/Users/elus/Demant/+Team OMEXP - Article/ISAAR 2021/Data/experiments","no","mono","no","18","no","white","no","Next","400","no","768","18","0","18","C:/Users/elus/Documents/RecordingLSL_maybefinal/subject-9.csv","5","[<opensesame_plugins.lsl_start.liblsl.LSL_session object at 0x00000202D9F03C50>]","Kafkaesque Koffka","3.2.7","1","0","2","1024","2","48000","-16","experiment","0","9","odd","NA","11335","11363","NA","5684","90830","87820","88827","89829","NA","NA","90830","NA","NA","11364","9335","86810","88326","89328","90330","86782","87810","86702","86782","12364","New experiment","yes","1024"
"<opensesame_plugins.lsl_start.liblsl.LSL_session object at 0x00000202D9F03C50>","1","black","[0.0, 0.0]","legacy","0","uniform","19","0","0","0","0","19","19","19","19","0","NA","19","NA","0","0","0","19","19","19","19","19","NA","19","19","0","Wed Nov 17 22:31:38 2021","-6","The main experiment item","yes","experiment.osexp","C:/Users/elus/Demant/+Team OMEXP - Article/ISAAR 2021/Data/experiments","no","mono","no","18","no","white","no","Next","400","no","768","19","0","19","C:/Users/elus/Documents/RecordingLSL_maybefinal/subject-9.csv","5","[<opensesame_plugins.lsl_start.liblsl.LSL_session object at 0x00000202D9F03C50>]","Kafkaesque Koffka","3.2.7","2","0","2","1024","2","48000","-16","experiment","0","9","odd","NA","11335","11363","NA","5684","94964","91950","92961","93963","NA","NA","94964","NA","NA","11364","9335","90937","92460","93462","94464","90910","91937","90832","90910","12364","New experiment","yes","1024"
"<opensesame_plugins.lsl_start.liblsl.LSL_session object at 0x00000202D9F03C50>","1","black","[0.0, 0.0]","legacy","0","uniform","20","0","0","0","0","20","20","20","20","0","NA","20","NA","0","0","0","20","20","20","20","20","NA","20","20","0","Wed Nov 17 22:31:38 2021","-6","The main experiment item","yes","experiment.osexp","C:/Users/elus/Demant/+Team OMEXP - Article/ISAAR 2021/Data/experiments","no","mono","no","18","no","white","no","Next","400","no","768","20","0","20","C:/Users/elus/Documents/RecordingLSL_maybefinal/subject-9.csv","5","[<opensesame_plugins.lsl_start.liblsl.LSL_session object at 0x00000202D9F03C50>]","Kafkaesque Koffka","3.2.7","3","0","2","1024","2","48000","-16","experiment","0","9","odd","NA","11335","11363","NA","5684","99099","96091","97096","98098","NA","NA","99099","NA","NA","11364","9335","95076","96595","97597","98599","95045","96076","94966","95045","12364","New experiment","yes","1024"
"<opensesame_plugins.lsl_start.liblsl.LSL_session object at 0x00000202D9F03C50>","1","black","[0.0, 0.0]","legacy","0","uniform","21","0","0","0","0","21","21","21","21","0","NA","21","NA","0","0","0","21","21","21","21","21","NA","21","21","0","Wed Nov 17 22:31:38 2021","-6","The main experiment item","yes","experiment.osexp","C:/Users/elus/Demant/+Team OMEXP - Article/ISAAR 2021/Data/experiments","no","mono","no","18","no","white","no","Next","400","no","768","21","0","21","C:/Users/elus/Documents/RecordingLSL_maybefinal/subject-9.csv","5","[<opensesame_plugins.lsl_start.liblsl.LSL_session object at 0x00000202D9F03C50>]","Kafkaesque Koffka","3.2.7","1","0","2","1024","2","48000","-16","experiment","0","9","odd","NA","11335","11363","NA","5684","103234","100220","101232","102233","NA","NA","103234","NA","NA","11364","9335","99208","100731","101732","102734","99179","100208","99101","99179","12364","New experiment","yes","1024"
"<opensesame_plugins.lsl_start.liblsl.LSL_session object at 0x00000202D9F03C50>","1","black","[0.0, 0.0]","legacy","0","uniform","22","0","0","0","0","22","22","22","22","0","NA","22","NA","0","0","0","22","22","22","22","22","NA","22","22","0","Wed Nov 17 22:31:38 2021","-6.5","The main experiment item","yes","experiment.osexp","C:/Users/elus/Demant/+Team OMEXP - Article/ISAAR 2021/Data/experiments","no","mono","no","18","no","white","no","Next","400","no","768","22","0","22","C:/Users/elus/Documents/RecordingLSL_maybefinal/subject-9.csv","5","[<opensesame_plugins.lsl_start.liblsl.LSL_session object at 0x00000202D9F03C50>]","Kafkaesque Koffka","3.2.7","2","0","2","1024","2","48000","-16","experiment","0","9","odd","NA","11335","11363","NA","5684","107369","104360","105366","106368","NA","NA","107369","NA","NA","11364","9335","103345","104865","105867","106869","103316","104345","103236","103316","12364","New experiment","yes","1024"
"<opensesame_plugins.lsl_start.liblsl.LSL_session object at 0x00000202D9F03C50>","1","black","[0.0, 0.0]","legacy","0","uniform","23","0","0","0","0","23","23","23","23","0","NA","23","NA","0","0","0","23","23","23","23","23","NA","23","23","0","Wed Nov 17 22:31:38 2021","-6.5","The main experiment item","yes","experiment.osexp","C:/Users/elus/Demant/+Team OMEXP - Article/ISAAR 2021/Data/experiments","no","mono","no","18","no","white","no","Next","400","no","768","23","0","23","C:/Users/elus/Documents/RecordingLSL_maybefinal/subject-9.csv","5","[<opensesame_plugins.lsl_start.liblsl.LSL_session object at 0x00000202D9F03C50>]","Kafkaesque Koffka","3.2.7","3","0","2","1024","2","48000","-16","experiment","0","9","odd","NA","11335","11363","NA","5684","111506","108501","109503","110505","NA","NA","111506","NA","NA","11364","9335","107487","109002","110004","111006","107458","108487","107371","107458","12364","New experiment","yes","1024"
"<opensesame_plugins.lsl_start.liblsl.LSL_session object at 0x00000202D9F03C50>","1","black","[0.0, 0.0]","legacy","0","uniform","24","0","0","0","0","24","24","24","24","0","NA","24","NA","0","0","0","24","24","24","24","24","NA","24","24","0","Wed Nov 17 22:31:38 2021","-6.5","The main experiment item","yes","experiment.osexp","C:/Users/elus/Demant/+Team OMEXP - Article/ISAAR 2021/Data/experiments","no","mono","no","18","no","white","no","Next","400","no","768","24","0","24","C:/Users/elus/Documents/RecordingLSL_maybefinal/subject-9.csv","5","[<opensesame_plugins.lsl_start.liblsl.LSL_session object at 0x00000202D9F03C50>]","Kafkaesque Koffka","3.2.7","1","0","2","1024","2","48000","-16","experiment","0","9","odd","NA","11335","11363","NA","5684","115650","112630","113647","114649","NA","NA","115650","NA","NA","11364","9335","111618","113146","114148","115150","111586","112618","111508","111586","12364","New experiment","yes","1024"
"<opensesame_plugins.lsl_start.liblsl.LSL_session object at 0x00000202D9F03C50>","0","black","[0.0, 0.0]","legacy","0","uniform","25","0","0","0","0","25","25","25","25","0","NA","25","NA","0","0","0","25","25","25","25","25","NA","25","25","0","Wed Nov 17 22:31:38 2021","-7","The main experiment item","yes","experiment.osexp","C:/Users/elus/Demant/+Team OMEXP - Article/ISAAR 2021/Data/experiments","no","mono","no","18","no","white","no","Next","400","no","768","25","0","25","C:/Users/elus/Documents/RecordingLSL_maybefinal/subject-9.csv","5","[<opensesame_plugins.lsl_start.liblsl.LSL_session object at 0x00000202D9F03C50>]","Kafkaesque Koffka","3.2.7","2","0","2","1024","2","48000","-16","experiment","0","9","odd","NA","11335","11363","NA","5684","119785","116780","117782","118784","NA","NA","119785","NA","NA","11364","9335","115762","117281","118283","119285","115738","116762","115659","115738","12364","New experiment","yes","1024"
"<opensesame_plugins.lsl_start.liblsl.LSL_session object at 0x00000202D9F03C50>","1","black","[0.0, 0.0]","legacy","0","uniform","26","0","0","0","0","26","26","26","26","0","NA","26","NA","0","0","0","26","26","26","26","26","NA","26","26","0","Wed Nov 17 22:31:38 2021","-6.5","The main experiment item","yes","experiment.osexp","C:/Users/elus/Demant/+Team OMEXP - Article/ISAAR 2021/Data/experiments","no","mono","no","18","no","white","no","Next","400","no","768","26","0","26","C:/Users/elus/Documents/RecordingLSL_maybefinal/subject-9.csv","5","[<opensesame_plugins.lsl_start.liblsl.LSL_session object at 0x00000202D9F03C50>]","Kafkaesque Koffka","3.2.7","3","0","2","1024","2","48000","-16","experiment","0","9","odd","NA","11335","11363","NA","5684","123925","120920","121922","122924","NA","NA","123925","NA","NA","11364","9335","119904","121421","122423","123425","119878","120904","119790","119878","12364","New experiment","yes","1024"
"<opensesame_plugins.lsl_start.liblsl.LSL_session object at 0x00000202D9F03C50>","1","black","[0.0, 0.0]","legacy","0","uniform","27","0","0","0","0","27","27","27","27","0","NA","27","NA","0","0","0","27","27","27","27","27","NA","27","27","0","Wed Nov 17 22:31:38 2021","-6.5","The main experiment item","yes","experiment.osexp","C:/Users/elus/Demant/+Team OMEXP - Article/ISAAR 2021/Data/experiments","no","mono","no","18","no","white","no","Next","400","no","768","27","0","27","C:/Users/elus/Documents/RecordingLSL_maybefinal/subject-9.csv","5","[<opensesame_plugins.lsl_start.liblsl.LSL_session object at 0x00000202D9F03C50>]","Kafkaesque Koffka","3.2.7","1","0","2","1024","2","48000","-16","experiment","0","9","odd","NA","11335","11363","NA","5684","128052","125042","126049","127051","NA","NA","128052","NA","NA","11364","9335","124033","125547","126550","127552","124006","125033","123927","124006","12364","New experiment","yes","1024"
"<opensesame_plugins.lsl_start.liblsl.LSL_session object at 0x00000202D9F03C50>","1","black","[0.0, 0.0]","legacy","0","uniform","28","0","0","0","0","28","28","28","28","0","NA","28","NA","0","0","0","28","28","28","28","28","NA","28","28","0","Wed Nov 17 22:31:38 2021","-6.5","The main experiment item","yes","experiment.osexp","C:/Users/elus/Demant/+Team OMEXP - Article/ISAAR 2021/Data/experiments","no","mono","no","18","no","white","no","Next","400","no","768","28","0","28","C:/Users/elus/Documents/RecordingLSL_maybefinal/subject-9.csv","5","[<opensesame_plugins.lsl_start.liblsl.LSL_session object at 0x00000202D9F03C50>]","Kafkaesque Koffka","3.2.7","2","0","2","1024","2","48000","-16","experiment","0","9","odd","NA","11335","11363","NA","5684","132185","129170","130182","131184","NA","NA","132185","NA","NA","11364","9335","128157","129681","130683","131685","128131","129157","128053","128131","12364","New experiment","yes","1024"
"<opensesame_plugins.lsl_start.liblsl.LSL_session object at 0x00000202D9F03C50>","1","black","[0.0, 0.0]","legacy","0","uniform","29","0","0","0","0","29","29","29","29","0","NA","29","NA","0","0","0","29","29","29","29","29","NA","29","29","0","Wed Nov 17 22:31:38 2021","-7","The main experiment item","yes","experiment.osexp","C:/Users/elus/Demant/+Team OMEXP - Article/ISAAR 2021/Data/experiments","no","mono","no","18","no","white","no","Next","400","no","768","29","0","29","C:/Users/elus/Documents/RecordingLSL_maybefinal/subject-9.csv","5","[<opensesame_plugins.lsl_start.liblsl.LSL_session object at 0x00000202D9F03C50>]","Kafkaesque Koffka","3.2.7","3","0","2","1024","2","48000","-16","experiment","0","9","odd","NA","11335","11363","NA","5684","136319","133311","134316","135318","NA","NA","136319","NA","NA","11364","9335","132294","133815","134817","135819","132265","133294","132187","132265","12364","New experiment","yes","1024"
"<opensesame_plugins.lsl_start.liblsl.LSL_session object at 0x00000202D9F03C50>","0","black","[0.0, 0.0]","legacy","0","uniform","30","0","0","0","0","30","30","30","30","0","NA","30","NA","0","0","0","30","30","30","30","30","NA","30","30","0","Wed Nov 17 22:31:38 2021","-7","The main experiment item","yes","experiment.osexp","C:/Users/elus/Demant/+Team OMEXP - Article/ISAAR 2021/Data/experiments","no","mono","no","18","no","white","no","Next","400","no","768","30","0","30","C:/Users/elus/Documents/RecordingLSL_maybefinal/subject-9.csv","5","[<opensesame_plugins.lsl_start.liblsl.LSL_session object at 0x00000202D9F03C50>]","Kafkaesque Koffka","3.2.7","1","0","2","1024","2","48000","-16","experiment","0","9","odd","NA","11335","11363","NA","5684","140447","137440","138444","139446","NA","NA","140447","NA","NA","11364","9335","136426","137943","138945","139947","136398","137426","136321","136398","12364","New experiment","yes","1024"
"<opensesame_plugins.lsl_start.liblsl.LSL_session object at 0x00000202D9F03C50>","1","black","[0.0, 0.0]","legacy","0","uniform","31","0","0","0","0","31","31","31","31","0","NA","31","NA","0","0","0","31","31","31","31","31","NA","31","31","0","Wed Nov 17 22:31:38 2021","-6.5","The main experiment item","yes","experiment.osexp","C:/Users/elus/Demant/+Team OMEXP - Article/ISAAR 2021/Data/experiments","no","mono","no","18","no","white","no","Next","400","no","768","31","0","31","C:/Users/elus/Documents/RecordingLSL_maybefinal/subject-9.csv","5","[<opensesame_plugins.lsl_start.liblsl.LSL_session object at 0x00000202D9F03C50>]","Kafkaesque Koffka","3.2.7","2","0","2","1024","2","48000","-16","experiment","0","9","odd","NA","11335","11363","NA","5684","144579","141570","142576","143578","NA","NA","144579","NA","NA","11364","9335","140556","142075","143077","144079","140527","141556","140449","140527","12364","New experiment","yes","1024"
"<opensesame_plugins.lsl_start.liblsl.LSL_session object at 0x00000202D9F03C50>","1","black","[0.0, 0.0]","legacy","0","uniform","32","0","0","0","0","32","32","32","32","0","NA","32","NA","0","0","0","32","32","32","32","32","NA","32","32","0","Wed Nov 17 22:31:38 2021","-6.5","The main experiment item","yes","experiment.osexp","C:/Users/elus/Demant/+Team OMEXP - Article/ISAAR 2021/Data/experiments","no","mono","no","18","no","white","no","Next","400","no","768","32","0","32","C:/Users/elus/Documents/RecordingLSL_maybefinal/subject-9.csv","5","[<opensesame_plugins.lsl_start.liblsl.LSL_session object at 0x00000202D9F03C50>]","Kafkaesque Koffka","3.2.7","3","0","2","1024","2","48000","-16","experiment","0","9","odd","NA","11335","11363","NA","5684","148715","145701","146712","147714","NA","NA","148715","NA","NA","11364","9335","144690","146211","147213","148215","144662","145690","144581","144662","12364","New experiment","yes","1024"
"<opensesame_plugins.lsl_start.liblsl.LSL_session object at 0x00000202D9F03C50>","1","black","[0.0, 0.0]","legacy","0","uniform","33","0","0","0","0","33","33","33","33","0","NA","33","NA","0","0","0","33","33","33","33","33","NA","33","33","0","Wed Nov 17 22:31:38 2021","-6.5","The main experiment item","yes","experiment.osexp","C:/Users/elus/Demant/+Team OMEXP - Article/ISAAR 2021/Data/experiments","no","mono","no","18","no","white","no","Next","400","no","768","33","0","33","C:/Users/elus/Documents/RecordingLSL_maybefinal/subject-9.csv","5","[<opensesame_plugins.lsl_start.liblsl.LSL_session object at 0x00000202D9F03C50>]","Kafkaesque Koffka","3.2.7","1","0","2","1024","2","48000","-16","experiment","0","9","odd","NA","11335","11363","NA","5684","152849","149840","150847","151849","NA","NA","152849","NA","NA","11364","9335","148824","150346","151348","152349","148796","149824","148717","148796","12364","New experiment","yes","1024"
"<opensesame_plugins.lsl_start.liblsl.LSL_session object at 0x00000202D9F03C50>","1","black","[0.0, 0.0]","legacy","0","uniform","34","0","0","0","0","34","34","34","34","0","NA","34","NA","0","0","0","34","34","34","34","34","NA","34","34","0","Wed Nov 17 22:31:38 2021","-7","The main experiment item","yes","experiment.osexp","C:/Users/elus/Demant/+Team OMEXP - Article/ISAAR 2021/Data/experiments","no","mono","no","18","no","white","no","Next","400","no","768","34","0","34","C:/Users/elus/Documents/RecordingLSL_maybefinal/subject-9.csv","5","[<opensesame_plugins.lsl_start.liblsl.LSL_session object at 0x00000202D9F03C50>]","Kafkaesque Koffka","3.2.7","2","0","2","1024","2","48000","-16","experiment","0","9","odd","NA","11335","11363","NA","5684","156984","153970","154981","155983","NA","NA","156984","NA","NA","11364","9335","152955","154480","155482","156484","152929","153955","152851","152929","12364","New experiment","yes","1024"
"<opensesame_plugins.lsl_start.liblsl.LSL_session object at 0x00000202D9F03C50>","0","black","[0.0, 0.0]","legacy","0","uniform","35","0","0","0","0","35","35","35","35","0","NA","35","NA","0","0","0","35","35","35","35","35","NA","35","35","0","Wed Nov 17 22:31:38 2021","-7","The main experiment item","yes","experiment.osexp","C:/Users/elus/Demant/+Team OMEXP - Article/ISAAR 2021/Data/experiments","no","mono","no","18","no","white","no","Next","400","no","768","35","0","35","C:/Users/elus/Documents/RecordingLSL_maybefinal/subject-9.csv","5","[<opensesame_plugins.lsl_start.liblsl.LSL_session object at 0x00000202D9F03C50>]","Kafkaesque Koffka","3.2.7","3","0","2","1024","2","48000","-16","experiment","0","9","odd","NA","11335","11363","NA","5684","161119","158110","159116","160118","NA","NA","161119","NA","NA","11364","9335","157095","158615","159617","160619","157067","158095","156986","157067","12364","New experiment","yes","1024"
"<opensesame_plugins.lsl_start.liblsl.LSL_session object at 0x00000202D9F03C50>","1","black","[0.0, 0.0]","legacy","0","uniform","36","0","1","0","0","36","36","36","36","1","NA","36","NA","0","1","0","36","36","36","36","36","NA","36","36","1","Wed Nov 17 22:31:38 2021","-6","The main experiment item","yes","experiment.osexp","C:/Users/elus/Demant/+Team OMEXP - Article/ISAAR 2021/Data/experiments","no","mono","no","18","no","white","no","Next","1000","no","768","0","1","0","C:/Users/elus/Documents/RecordingLSL_maybefinal/subject-9.csv","5","[<opensesame_plugins.lsl_start.liblsl.LSL_session object at 0x00000202D9F03C50>]","Kafkaesque Koffka","3.2.7","1","0","2","1024","2","48000","-16","experiment","0","9","odd","NA","11335","161211","NA","5684","166295","163290","164292","165294","NA","NA","166295","NA","NA","161213","9335","162275","163791","164793","165795","162256","163275","161121","162256","162213","New experiment","yes","1024"
"<opensesame_plugins.lsl_start.liblsl.LSL_session object at 0x00000202D9F03C50>","0","black","[0.0, 0.0]","legacy","0","uniform","37","0","1","0","0","37","37","37","37","1","NA","37","NA","0","1","0","37","37","37","37","37","NA","37","37","1","Wed Nov 17 22:31:38 2021","-6","The main experiment item","yes","experiment.osexp","C:/Users/elus/Demant/+Team OMEXP - Article/ISAAR 2021/Data/experiments","no","mono","no","18","no","white","no","Next","1000","no","768","1","1","1","C:/Users/elus/Documents/RecordingLSL_maybefinal/subject-9.csv","5","[<opensesame_plugins.lsl_start.liblsl.LSL_session object at 0x00000202D9F03C50>]","Kafkaesque Koffka","3.2.7","2","0","2","1024","2","48000","-16","experiment","0","9","odd","NA","11335","161211","NA","5684","170424","167419","168421","169423","NA","NA","170424","NA","NA","161213","9335","166402","167920","168922","169924","166376","167402","166297","166376","162213","New experiment","yes","1024"
"<opensesame_plugins.lsl_start.liblsl.LSL_session object at 0x00000202D9F03C50>","1","black","[0.0, 0.0]","legacy","0","uniform","38","0","1","0","0","38","38","38","38","1","NA","38","NA","0","1","0","38","38","38","38","38","NA","38","38","1","Wed Nov 17 22:31:38 2021","-5","The main experiment item","yes","experiment.osexp","C:/Users/elus/Demant/+Team OMEXP - Article/ISAAR 2021/Data/experiments","no","mono","no","18","no","white","no","Next","1000","no","768","2","1","2","C:/Users/elus/Documents/RecordingLSL_maybefinal/subject-9.csv","5","[<opensesame_plugins.lsl_start.liblsl.LSL_session object at 0x00000202D9F03C50>]","Kafkaesque Koffka","3.2.7","3","0","2","1024","2","48000","-16","experiment","0","9","odd","NA","11335","161211","NA","5684","174565","171560","172562","173564","NA","NA","174565","NA","NA","161213","9335","170544","172061","173063","174065","170514","171544","170426","170514","162213","New experiment","yes","1024"
"<opensesame_plugins.lsl_start.liblsl.LSL_session object at 0x00000202D9F03C50>","1","black","[0.0, 0.0]","legacy","0","uniform","39","0","1","0","0","39","39","39","39","1","NA","39","NA","0","1","0","39","39","39","39","39","NA","39","39","1","Wed Nov 17 22:31:38 2021","-5","The main experiment item","yes","experiment.osexp","C:/Users/elus/Demant/+Team OMEXP - Article/ISAAR 2021/Data/experiments","no","mono","no","18","no","white","no","Next","1000","no","768","3","1","3","C:/Users/elus/Documents/RecordingLSL_maybefinal/subject-9.csv","5","[<opensesame_plugins.lsl_start.liblsl.LSL_session object at 0x00000202D9F03C50>]","Kafkaesque Koffka","3.2.7","1","0","2","1024","2","48000","-16","experiment","0","9","odd","NA","11335","161211","NA","5684","178698","175692","176694","177697","NA","NA","178698","NA","NA","161213","9335","174672","176193","177195","178198","174646","175672","174567","174646","162213","New experiment","yes","1024"
"<opensesame_plugins.lsl_start.liblsl.LSL_session object at 0x00000202D9F03C50>","1","black","[0.0, 0.0]","legacy","0","uniform","40","0","1","0","0","40","40","40","40","1","NA","40","NA","0","1","0","40","40","40","40","40","NA","40","40","1","Wed Nov 17 22:31:38 2021","-5","The main experiment item","yes","experiment.osexp","C:/Users/elus/Demant/+Team OMEXP - Article/ISAAR 2021/Data/experiments","no","mono","no","18","no","white","no","Next","1000","no","768","4","1","4","C:/Users/elus/Documents/RecordingLSL_maybefinal/subject-9.csv","5","[<opensesame_plugins.lsl_start.liblsl.LSL_session object at 0x00000202D9F03C50>]","Kafkaesque Koffka","3.2.7","2","0","2","1024","2","48000","-16","experiment","0","9","odd","NA","11335","161211","NA","5684","182826","179821","180823","181825","NA","NA","182826","NA","NA","161213","9335","178806","180322","181324","182326","178779","179806","178701","178779","162213","New experiment","yes","1024"
"<opensesame_plugins.lsl_start.liblsl.LSL_session object at 0x00000202D9F03C50>","1","black","[0.0, 0.0]","legacy","0","uniform","41","0","1","0","0","41","41","41","41","1","NA","41","NA","0","1","0","41","41","41","41","41","NA","41","41","1","Wed Nov 17 22:31:38 2021","-5.5","The main experiment item","yes","experiment.osexp","C:/Users/elus/Demant/+Team OMEXP - Article/ISAAR 2021/Data/experiments","no","mono","no","18","no","white","no","Next","1000","no","768","5","1","5","C:/Users/elus/Documents/RecordingLSL_maybefinal/subject-9.csv","5","[<opensesame_plugins.lsl_start.liblsl.LSL_session object at 0x00000202D9F03C50>]","Kafkaesque Koffka","3.2.7","3","0","2","1024","2","48000","-16","experiment","0","9","odd","NA","11335","161211","NA","5684","186975","183970","184972","185974","NA","NA","186975","NA","NA","161213","9335","182954","184471","185473","186475","182921","183954","182828","182921","162213","New experiment","yes","1024"
"<opensesame_plugins.lsl_start.liblsl.LSL_session object at 0x00000202D9F03C50>","1","black","[0.0, 0.0]","legacy","0","uniform","42","0","1","0","0","42","42","42","42","1","NA","42","NA","0","1","0","42","42","42","42","42","NA","42","42","1","Wed Nov 17 22:31:38 2021","-5.5","The main experiment item","yes","experiment.osexp","C:/Users/elus/Demant/+Team OMEXP - Article/ISAAR 2021/Data/experiments","no","mono","no","18","no","white","no","Next","1000","no","768","6","1","6","C:/Users/elus/Documents/RecordingLSL_maybefinal/subject-9.csv","5","[<opensesame_plugins.lsl_start.liblsl.LSL_session object at 0x00000202D9F03C50>]","Kafkaesque Koffka","3.2.7","1","0","2","1024","2","48000","-16","experiment","0","9","odd","NA","11335","161211","NA","5684","191106","188101","189103","190105","NA","NA","191106","NA","NA","161213","9335","187088","188602","189604","190606","187060","188088","186979","187060","162213","New experiment","yes","1024"
"<opensesame_plugins.lsl_start.liblsl.LSL_session object at 0x00000202D9F03C50>","1","black","[0.0, 0.0]","legacy","0","uniform","43","0","1","0","0","43","43","43","43","1","NA","43","NA","0","1","0","43","43","43","43","43","NA","43","43","1","Wed Nov 17 22:31:38 2021","-5.5","The main experiment item","yes","experiment.osexp","C:/Users/elus/Demant/+Team OMEXP - Article/ISAAR 2021/Data/experiments","no","mono","no","18","no","white","no","Next","1000","no","768","7","1","7","C:/Users/elus/Documents/RecordingLSL_maybefinal/subject-9.csv","5","[<opensesame_plugins.lsl_start.liblsl.LSL_session object at 0x00000202D9F03C50>]","Kafkaesque Koffka","3.2.7","2","0","2","1024","2","48000","-16","experiment","0","9","odd","NA","11335","161211","NA","5684","195236","192220","193233","194235","NA","NA","195236","NA","NA","161213","9335","191212","192732","193734","194736","191185","192212","191108","191185","162213","New experiment","yes","1024"
"<opensesame_plugins.lsl_start.liblsl.LSL_session object at 0x00000202D9F03C50>","1","black","[0.0, 0.0]","legacy","0","uniform","44","0","1","0","0","44","44","44","44","1","NA","44","NA","0","1","0","44","44","44","44","44","NA","44","44","1","Wed Nov 17 22:31:38 2021","-6","The main experiment item","yes","experiment.osexp","C:/Users/elus/Demant/+Team OMEXP - Article/ISAAR 2021/Data/experiments","no","mono","no","18","no","white","no","Next","1000","no","768","8","1","8","C:/Users/elus/Documents/RecordingLSL_maybefinal/subject-9.csv","5","[<opensesame_plugins.lsl_start.liblsl.LSL_session object at 0x00000202D9F03C50>]","Kafkaesque Koffka","3.2.7","3","0","2","1024","2","48000","-16","experiment","0","9","odd","NA","11335","161211","NA","5684","199368","196360","197365","198367","NA","NA","199368","NA","NA","161213","9335","195345","196864","197866","198868","195317","196345","195238","195317","162213","New experiment","yes","1024"
"<opensesame_plugins.lsl_start.liblsl.LSL_session object at 0x00000202D9F03C50>","1","black","[0.0, 0.0]","legacy","0","uniform","45","0","1","0","0","45","45","45","45","1","NA","45","NA","0","1","0","45","45","45","45","45","NA","45","45","1","Wed Nov 17 22:31:38 2021","-6","The main experiment item","yes","experiment.osexp","C:/Users/elus/Demant/+Team OMEXP - Article/ISAAR 2021/Data/experiments","no","mono","no","18","no","white","no","Next","1000","no","768","9","1","9","C:/Users/elus/Documents/RecordingLSL_maybefinal/subject-9.csv","5","[<opensesame_plugins.lsl_start.liblsl.LSL_session object at 0x00000202D9F03C50>]","Kafkaesque Koffka","3.2.7","1","0","2","1024","2","48000","-16","experiment","0","9","odd","NA","11335","161211","NA","5684","203500","200491","201497","202499","NA","NA","203500","NA","NA","161213","9335","199476","200996","201998","203000","199448","200476","199370","199448","162213","New experiment","yes","1024"
"<opensesame_plugins.lsl_start.liblsl.LSL_session object at 0x00000202D9F03C50>","1","black","[0.0, 0.0]","legacy","0","uniform","46","0","1","0","0","46","46","46","46","1","NA","46","NA","0","1","0","46","46","46","46","46","NA","46","46","1","Wed Nov 17 22:31:38 2021","-6","The main experiment item","yes","experiment.osexp","C:/Users/elus/Demant/+Team OMEXP - Article/ISAAR 2021/Data/experiments","no","mono","no","18","no","white","no","Next","1000","no","768","10","1","10","C:/Users/elus/Documents/RecordingLSL_maybefinal/subject-9.csv","5","[<opensesame_plugins.lsl_start.liblsl.LSL_session object at 0x00000202D9F03C50>]","Kafkaesque Koffka","3.2.7","2","0","2","1024","2","48000","-16","experiment","0","9","odd","NA","11335","161211","NA","5684","207635","204620","205632","206634","NA","NA","207635","NA","NA","161213","9335","203606","205131","206133","207135","203580","204606","203502","203580","162213","New experiment","yes","1024"
"<opensesame_plugins.lsl_start.liblsl.LSL_session object at 0x00000202D9F03C50>","0","black","[0.0, 0.0]","legacy","0","uniform","47","0","1","0","0","47","47","47","47","1","NA","47","NA","0","1","0","47","47","47","47","47","NA","47","47","1","Wed Nov 17 22:31:38 2021","-6.5","The main experiment item","yes","experiment.osexp","C:/Users/elus/Demant/+Team OMEXP - Article/ISAAR 2021/Data/experiments","no","mono","no","18","no","white","no","Next","1000","no","768","11","1","11","C:/Users/elus/Documents/RecordingLSL_maybefinal/subject-9.csv","5","[<opensesame_plugins.lsl_start.liblsl.LSL_session object at 0x00000202D9F03C50>]","Kafkaesque Koffka","3.2.7","3","0","2","1024","2","48000","-16","experiment","0","9","odd","NA","11335","161211","NA","5684","211768","208760","209765","210767","NA","NA","211768","NA","NA","161213","9335","207745","209264","210266","211268","207717","208745","207637","207717","162213","New experiment","yes","1024"
"<opensesame_plugins.lsl_start.liblsl.LSL_session object at 0x00000202D9F03C50>","1","black","[0.0, 0.0]","legacy","0","uniform","48","0","1","0","0","48","48","48","48","1","NA","48","NA","0","1","0","48","48","48","48","48","NA","48","48","1","Wed Nov 17 22:31:38 2021","-6","The main experiment item","yes","experiment.osexp","C:/Users/elus/Demant/+Team OMEXP - Article/ISAAR 2021/Data/experiments","no","mono","no","18","no","white","no","Next","1000","no","768","12","1","12","C:/Users/elus/Documents/RecordingLSL_maybefinal/subject-9.csv","5","[<opensesame_plugins.lsl_start.liblsl.LSL_session object at 0x00000202D9F03C50>]","Kafkaesque Koffka","3.2.7","1","0","2","1024","2","48000","-16","experiment","0","9","odd","NA","11335","161211","NA","5684","215903","212890","213900","214903","NA","NA","215903","NA","NA","161213","9335","211879","213399","214401","215403","211850","212879","211770","211850","162213","New experiment","yes","1024"
"<opensesame_plugins.lsl_start.liblsl.LSL_session object at 0x00000202D9F03C50>","1","black","[0.0, 0.0]","legacy","0","uniform","49","0","1","0","0","49","49","49","49","1","NA","49","NA","0","1","0","49","49","49","49","49","NA","49","49","1","Wed Nov 17 22:31:38 2021","-6","The main experiment item","yes","experiment.osexp","C:/Users/elus/Demant/+Team OMEXP - Article/ISAAR 2021/Data/experiments","no","mono","no","18","no","white","no","Next","1000","no","768","13","1","13","C:/Users/elus/Documents/RecordingLSL_maybefinal/subject-9.csv","5","[<opensesame_plugins.lsl_start.liblsl.LSL_session object at 0x00000202D9F03C50>]","Kafkaesque Koffka","3.2.7","2","0","2","1024","2","48000","-16","experiment","0","9","odd","NA","11335","161211","NA","5684","220037","217022","218034","219036","NA","NA","220037","NA","NA","161213","9335","216008","217533","218535","219537","215983","217008","215905","215983","162213","New experiment","yes","1024"
"<opensesame_plugins.lsl_start.liblsl.LSL_session object at 0x00000202D9F03C50>","1","black","[0.0, 0.0]","legacy","0","uniform","50","0","1","0","0","50","50","50","50","1","NA","50","NA","0","1","0","50","50","50","50","50","NA","50","50","1","Wed Nov 17 22:31:38 2021","-6","The main experiment item","yes","experiment.osexp","C:/Users/elus/Demant/+Team OMEXP - Article/ISAAR 2021/Data/experiments","no","mono","no","18","no","white","no","Next","1000","no","768","14","1","14","C:/Users/elus/Documents/RecordingLSL_maybefinal/subject-9.csv","5","[<opensesame_plugins.lsl_start.liblsl.LSL_session object at 0x00000202D9F03C50>]","Kafkaesque Koffka","3.2.7","3","0","2","1024","2","48000","-16","experiment","0","9","odd","NA","11335","161211","NA","5684","224170","221162","222166","223169","NA","NA","224170","NA","NA","161213","9335","220143","221665","222668","223670","220116","221143","220039","220116","162213","New experiment","yes","1024"
"<opensesame_plugins.lsl_start.liblsl.LSL_session object at 0x00000202D9F03C50>","1","black","[0.0, 0.0]","legacy","0","uniform","51","0","1","0","0","51","51","51","51","1","NA","51","NA","0","1","0","51","51","51","51","51","NA","51","51","1","Wed Nov 17 22:31:38 2021","-6.5","The main experiment item","yes","experiment.osexp","C:/Users/elus/Demant/+Team OMEXP - Article/ISAAR 2021/Data/experiments","no","mono","no","18","no","white","no","Next","1000","no","768","15","1","15","C:/Users/elus/Documents/RecordingLSL_maybefinal/subject-9.csv","5","[<opensesame_plugins.lsl_start.liblsl.LSL_session object at 0x00000202D9F03C50>]","Kafkaesque Koffka","3.2.7","1","0","2","1024","2","48000","-16","experiment","0","9","odd","NA","11335","161211","NA","5684","228304","225290","226301","227303","NA","NA","228304","NA","NA","161213","9335","224279","225799","226802","227804","224251","225279","224172","224251","162213","New experiment","yes","1024"
"<opensesame_plugins.lsl_start.liblsl.LSL_session object at 0x00000202D9F03C50>","1","black","[0.0, 0.0]","legacy","0","uniform","52","0","1","0","0","52","52","52","52","1","NA","52","NA","0","1","0","52","52","52","52","52","NA","52","52","1","Wed Nov 17 22:31:38 2021","-6.5","The main experiment item","yes","experiment.osexp","C:/Users/elus/Demant/+Team OMEXP - Article/ISAAR 2021/Data/experiments","no","mono","no","18","no","white","no","Next","1000","no","768","16","1","16","C:/Users/elus/Documents/RecordingLSL_maybefinal/subject-9.csv","5","[<opensesame_plugins.lsl_start.liblsl.LSL_session object at 0x00000202D9F03C50>]","Kafkaesque Koffka","3.2.7","2","0","2","1024","2","48000","-16","experiment","0","9","odd","NA","11335","161211","NA","5684","232434","229420","230431","231433","NA","NA","232434","NA","NA","161213","9335","228411","229930","230932","231934","228383","229411","228306","228383","162213","New experiment","yes","1024"
"<opensesame_plugins.lsl_start.liblsl.LSL_session object at 0x00000202D9F03C50>","1","black","[0.0, 0.0]","legacy","0","uniform","53","0","1","0","0","53","53","53","53","1","NA","53","NA","0","1","0","53","53","53","53","53","NA","53","53","1","Wed Nov 17 22:31:38 2021","-6.5","The main experiment item","yes","experiment.osexp","C:/Users/elus/Demant/+Team OMEXP - Article/ISAAR 2021/Data/experiments","no","mono","no","18","no","white","no","Next","1000","no","768","17","1","17","C:/Users/elus/Documents/RecordingLSL_maybefinal/subject-9.csv","5","[<opensesame_plugins.lsl_start.liblsl.LSL_session object at 0x00000202D9F03C50>]","Kafkaesque Koffka","3.2.7","3","0","2","1024","2","48000","-16","experiment","0","9","odd","NA","11335","161211","NA","5684","236564","233550","234561","235563","NA","NA","236564","NA","NA","161213","9335","232541","234060","235062","236064","232512","233541","232436","232512","162213","New experiment","yes","1024"
"<opensesame_plugins.lsl_start.liblsl.LSL_session object at 0x00000202D9F03C50>","1","black","[0.0, 0.0]","legacy","0","uniform","54","0","1","0","0","54","54","54","54","1","NA","54","NA","0","1","0","54","54","54","54","54","NA","54","54","1","Wed Nov 17 22:31:38 2021","-7","The main experiment item","yes","experiment.osexp","C:/Users/elus/Demant/+Team OMEXP - Article/ISAAR 2021/Data/experiments","no","mono","no","18","no","white","no","Next","1000","no","768","18","1","18","C:/Users/elus/Documents/RecordingLSL_maybefinal/subject-9.csv","5","[<opensesame_plugins.lsl_start.liblsl.LSL_session object at 0x00000202D9F03C50>]","Kafkaesque Koffka","3.2.7","1","0","2","1024","2","48000","-16","experiment","0","9","odd","NA","11335","161211","NA","5684","240696","237682","238693","239695","NA","NA","240696","NA","NA","161213","9335","236673","238192","239194","240196","236643","237673","236566","236643","162213","New experiment","yes","1024"
"<opensesame_plugins.lsl_start.liblsl.LSL_session object at 0x00000202D9F03C50>","1","black","[0.0, 0.0]","legacy","0","uniform","55","0","1","0","0","55","55","55","55","1","NA","55","NA","0","1","0","55","55","55","55","55","NA","55","55","1","Wed Nov 17 22:31:38 2021","-7","The main experiment item","yes","experiment.osexp","C:/Users/elus/Demant/+Team OMEXP - Article/ISAAR 2021/Data/experiments","no","mono","no","18","no","white","no","Next","1000","no","768","19","1","19","C:/Users/elus/Documents/RecordingLSL_maybefinal/subject-9.csv","5","[<opensesame_plugins.lsl_start.liblsl.LSL_session object at 0x00000202D9F03C50>]","Kafkaesque Koffka","3.2.7","2","0","2","1024","2","48000","-16","experiment","0","9","odd","NA","11335","161211","NA","5684","244827","241812","242824","243826","NA","NA","244827","NA","NA","161213","9335","240803","242323","243325","244327","240776","241803","240698","240776","162213","New experiment","yes","1024"
"<opensesame_plugins.lsl_start.liblsl.LSL_session object at 0x00000202D9F03C50>","0","black","[0.0, 0.0]","legacy","0","uniform","56","0","1","0","0","56","56","56","56","1","NA","56","NA","0","1","0","56","56","56","56","56","NA","56","56","1","Wed Nov 17 22:31:38 2021","-7","The main experiment item","yes","experiment.osexp","C:/Users/elus/Demant/+Team OMEXP - Article/ISAAR 2021/Data/experiments","no","mono","no","18","no","white","no","Next","1000","no","768","20","1","20","C:/Users/elus/Documents/RecordingLSL_maybefinal/subject-9.csv","5","[<opensesame_plugins.lsl_start.liblsl.LSL_session object at 0x00000202D9F03C50>]","Kafkaesque Koffka","3.2.7","3","0","2","1024","2","48000","-16","experiment","0","9","odd","NA","11335","161211","NA","5684","248954","245949","246951","247953","NA","NA","248954","NA","NA","161213","9335","244937","246450","247452","248454","244909","245937","244829","244909","162213","New experiment","yes","1024"
"<opensesame_plugins.lsl_start.liblsl.LSL_session object at 0x00000202D9F03C50>","1","black","[0.0, 0.0]","legacy","0","uniform","57","0","1","0","0","57","57","57","57","1","NA","57","NA","0","1","0","57","57","57","57","57","NA","57","57","1","Wed Nov 17 22:31:38 2021","-6.5","The main experiment item","yes","experiment.osexp","C:/Users/elus/Demant/+Team OMEXP - Article/ISAAR 2021/Data/experiments","no","mono","no","18","no","white","no","Next","1000","no","768","21","1","21","C:/Users/elus/Documents/RecordingLSL_maybefinal/subject-9.csv","5","[<opensesame_plugins.lsl_start.liblsl.LSL_session object at 0x00000202D9F03C50>]","Kafkaesque Koffka","3.2.7","1","0","2","1024","2","48000","-16","experiment","0","9","odd","NA","11335","161211","NA","5684","253087","250081","251084","252086","NA","NA","253087","NA","NA","161213","9335","249065","250582","251585","252587","249035","250065","248956","249035","162213","New experiment","yes","1024"
"<opensesame_plugins.lsl_start.liblsl.LSL_session object at 0x00000202D9F03C50>","0","black","[0.0, 0.0]","legacy","0","uniform","58","0","1","0","0","58","58","58","58","1","NA","58","NA","0","1","0","58","58","58","58","58","NA","58","58","1","Wed Nov 17 22:31:38 2021","-6.5","The main experiment item","yes","experiment.osexp","C:/Users/elus/Demant/+Team OMEXP - Article/ISAAR 2021/Data/experiments","no","mono","no","18","no","white","no","Next","1000","no","768","22","1","22","C:/Users/elus/Documents/RecordingLSL_maybefinal/subject-9.csv","5","[<opensesame_plugins.lsl_start.liblsl.LSL_session object at 0x00000202D9F03C50>]","Kafkaesque Koffka","3.2.7","2","0","2","1024","2","48000","-16","experiment","0","9","odd","NA","11335","161211","NA","5684","257219","254210","255216","256218","NA","NA","257219","NA","NA","161213","9335","253199","254715","255717","256719","253169","254199","253089","253169","162213","New experiment","yes","1024"
"<opensesame_plugins.lsl_start.liblsl.LSL_session object at 0x00000202D9F03C50>","1","black","[0.0, 0.0]","legacy","0","uniform","59","0","1","0","0","59","59","59","59","1","NA","59","NA","0","1","0","59","59","59","59","59","NA","59","59","1","Wed Nov 17 22:31:38 2021","-6","The main experiment item","yes","experiment.osexp","C:/Users/elus/Demant/+Team OMEXP - Article/ISAAR 2021/Data/experiments","no","mono","no","18","no","white","no","Next","1000","no","768","23","1","23","C:/Users/elus/Documents/RecordingLSL_maybefinal/subject-9.csv","5","[<opensesame_plugins.lsl_start.liblsl.LSL_session object at 0x00000202D9F03C50>]","Kafkaesque Koffka","3.2.7","3","0","2","1024","2","48000","-16","experiment","0","9","odd","NA","11335","161211","NA","5684","261348","258340","259345","260347","NA","NA","261348","NA","NA","161213","9335","257328","258844","259846","260848","257300","258328","257221","257300","162213","New experiment","yes","1024"
"<opensesame_plugins.lsl_start.liblsl.LSL_session object at 0x00000202D9F03C50>","1","black","[0.0, 0.0]","legacy","0","uniform","60","0","1","0","0","60","60","60","60","1","NA","60","NA","0","1","0","60","60","60","60","60","NA","60","60","1","Wed Nov 17 22:31:38 2021","-6","The main experiment item","yes","experiment.osexp","C:/Users/elus/Demant/+Team OMEXP - Article/ISAAR 2021/Data/experiments","no","mono","no","18","no","white","no","Next","1000","no","768","24","1","24","C:/Users/elus/Documents/RecordingLSL_maybefinal/subject-9.csv","5","[<opensesame_plugins.lsl_start.liblsl.LSL_session object at 0x00000202D9F03C50>]","Kafkaesque Koffka","3.2.7","1","0","2","1024","2","48000","-16","experiment","0","9","odd","NA","11335","161211","NA","5684","265575","262570","263572","264574","NA","NA","265575","NA","NA","161213","9335","261561","263071","264073","265075","261435","262561","261350","261435","162213","New experiment","yes","1024"
"<opensesame_plugins.lsl_start.liblsl.LSL_session object at 0x00000202D9F03C50>","1","black","[0.0, 0.0]","legacy","0","uniform","61","0","1","0","0","61","61","61","61","1","NA","61","NA","0","1","0","61","61","61","61","61","NA","61","61","1","Wed Nov 17 22:31:38 2021","-6","The main experiment item","yes","experiment.osexp","C:/Users/elus/Demant/+Team OMEXP - Article/ISAAR 2021/Data/experiments","no","mono","no","18","no","white","no","Next","1000","no","768","25","1","25","C:/Users/elus/Documents/RecordingLSL_maybefinal/subject-9.csv","5","[<opensesame_plugins.lsl_start.liblsl.LSL_session object at 0x00000202D9F03C50>]","Kafkaesque Koffka","3.2.7","2","0","2","1024","2","48000","-16","experiment","0","9","odd","NA","11335","161211","NA","5684","269698","266693","267695","268697","NA","NA","269698","NA","NA","161213","9335","265683","267194","268196","269198","265656","266683","265577","265656","162213","New experiment","yes","1024"
"<opensesame_plugins.lsl_start.liblsl.LSL_session object at 0x00000202D9F03C50>","1","black","[0.0, 0.0]","legacy","0","uniform","62","0","1","0","0","62","62","62","62","1","NA","62","NA","0","1","0","62","62","62","62","62","NA","62","62","1","Wed Nov 17 22:31:38 2021","-6.5","The main experiment item","yes","experiment.osexp","C:/Users/elus/Demant/+Team OMEXP - Article/ISAAR 2021/Data/experiments","no","mono","no","18","no","white","no","Next","1000","no","768","26","1","26","C:/Users/elus/Documents/RecordingLSL_maybefinal/subject-9.csv","5","[<opensesame_plugins.lsl_start.liblsl.LSL_session object at 0x00000202D9F03C50>]","Kafkaesque Koffka","3.2.7","3","0","2","1024","2","48000","-16","experiment","0","9","odd","NA","11335","161211","NA","5684","273817","270812","271814","272816","NA","NA","273817","NA","NA","161213","9335","269803","271313","272315","273317","269777","270803","269700","269777","162213","New experiment","yes","1024"
"<opensesame_plugins.lsl_start.liblsl.LSL_session object at 0x00000202D9F03C50>","1","black","[0.0, 0.0]","legacy","0","uniform","63","0","1","0","0","63","63","63","63","1","NA","63","NA","0","1","0","63","63","63","63","63","NA","63","63","1","Wed Nov 17 22:31:38 2021","-6.5","The main experiment item","yes","experiment.osexp","C:/Users/elus/Demant/+Team OMEXP - Article/ISAAR 2021/Data/experiments","no","mono","no","18","no","white","no","Next","1000","no","768","27","1","27","C:/Users/elus/Documents/RecordingLSL_maybefinal/subject-9.csv","5","[<opensesame_plugins.lsl_start.liblsl.LSL_session object at 0x00000202D9F03C50>]","Kafkaesque Koffka","3.2.7","1","0","2","1024","2","48000","-16","experiment","0","9","odd","NA","11335","161211","NA","5684","277946","274940","275943","276945","NA","NA","277946","NA","NA","161213","9335","273927","275441","276444","277446","273899","274927","273819","273899","162213","New experiment","yes","1024"
"<opensesame_plugins.lsl_start.liblsl.LSL_session object at 0x00000202D9F03C50>","1","black","[0.0, 0.0]","legacy","0","uniform","64","0","1","0","0","64","64","64","64","1","NA","64","NA","0","1","0","64","64","64","64","64","NA","64","64","1","Wed Nov 17 22:31:38 2021","-6.5","The main experiment item","yes","experiment.osexp","C:/Users/elus/Demant/+Team OMEXP - Article/ISAAR 2021/Data/experiments","no","mono","no","18","no","white","no","Next","1000","no","768","28","1","28","C:/Users/elus/Documents/RecordingLSL_maybefinal/subject-9.csv","5","[<opensesame_plugins.lsl_start.liblsl.LSL_session object at 0x00000202D9F03C50>]","Kafkaesque Koffka","3.2.7","2","0","2","1024","2","48000","-16","experiment","0","9","odd","NA","11335","161211","NA","5684","282074","279069","280071","281073","NA","NA","282074","NA","NA","161213","9335","278055","279570","280572","281574","278029","279055","277948","278029","162213","New experiment","yes","1024"
"<opensesame_plugins.lsl_start.liblsl.LSL_session object at 0x00000202D9F03C50>","1","black","[0.0, 0.0]","legacy","0","uniform","65","0","1","0","0","65","65","65","65","1","NA","65","NA","0","1","0","65","65","65","65","65","NA","65","65","1","Wed Nov 17 22:31:38 2021","-7","The main experiment item","yes","experiment.osexp","C:/Users/elus/Demant/+Team OMEXP - Article/ISAAR 2021/Data/experiments","no","mono","no","18","no","white","no","Next","1000","no","768","29","1","29","C:/Users/elus/Documents/RecordingLSL_maybefinal/subject-9.csv","5","[<opensesame_plugins.lsl_start.liblsl.LSL_session object at 0x00000202D9F03C50>]","Kafkaesque Koffka","3.2.7","3","0","2","1024","2","48000","-16","experiment","0","9","odd","NA","11335","161211","NA","5684","286199","283194","284196","285198","NA","NA","286199","NA","NA","161213","9335","282184","283695","284697","285699","282155","283184","282077","282155","162213","New experiment","yes","1024"
"<opensesame_plugins.lsl_start.liblsl.LSL_session object at 0x00000202D9F03C50>","1","black","[0.0, 0.0]","legacy","0","uniform","66","0","1","0","0","66","66","66","66","1","NA","66","NA","0","1","0","66","66","66","66","66","NA","66","66","1","Wed Nov 17 22:31:38 2021","-7","The main experiment item","yes","experiment.osexp","C:/Users/elus/Demant/+Team OMEXP - Article/ISAAR 2021/Data/experiments","no","mono","no","18","no","white","no","Next","1000","no","768","30","1","30","C:/Users/elus/Documents/RecordingLSL_maybefinal/subject-9.csv","5","[<opensesame_plugins.lsl_start.liblsl.LSL_session object at 0x00000202D9F03C50>]","Kafkaesque Koffka","3.2.7","1","0","2","1024","2","48000","-16","experiment","0","9","odd","NA","11335","161211","NA","5684","290324","287320","288321","289323","NA","NA","290324","NA","NA","161213","9335","286306","287820","288822","289824","286278","287306","286201","286278","162213","New experiment","yes","1024"
"<opensesame_plugins.lsl_start.liblsl.LSL_session object at 0x00000202D9F03C50>","1","black","[0.0, 0.0]","legacy","0","uniform","67","0","1","0","0","67","67","67","67","1","NA","67","NA","0","1","0","67","67","67","67","67","NA","67","67","1","Wed Nov 17 22:31:38 2021","-7","The main experiment item","yes","experiment.osexp","C:/Users/elus/Demant/+Team OMEXP - Article/ISAAR 2021/Data/experiments","no","mono","no","18","no","white","no","Next","1000","no","768","31","1","31","C:/Users/elus/Documents/RecordingLSL_maybefinal/subject-9.csv","5","[<opensesame_plugins.lsl_start.liblsl.LSL_session object at 0x00000202D9F03C50>]","Kafkaesque Koffka","3.2.7","2","0","2","1024","2","48000","-16","experiment","0","9","odd","NA","11335","161211","NA","5684","294454","291449","292451","293453","NA","NA","294454","NA","NA","161213","9335","290431","291950","292952","293954","290404","291432","290326","290404","162213","New experiment","yes","1024"
"<opensesame_plugins.lsl_start.liblsl.LSL_session object at 0x00000202D9F03C50>","1","black","[0.0, 0.0]","legacy","0","uniform","68","0","1","0","0","68","68","68","68","1","NA","68","NA","0","1","0","68","68","68","68","68","NA","68","68","1","Wed Nov 17 22:31:38 2021","-7.5","The main experiment item","yes","experiment.osexp","C:/Users/elus/Demant/+Team OMEXP - Article/ISAAR 2021/Data/experiments","no","mono","no","18","no","white","no","Next","1000","no","768","32","1","32","C:/Users/elus/Documents/RecordingLSL_maybefinal/subject-9.csv","5","[<opensesame_plugins.lsl_start.liblsl.LSL_session object at 0x00000202D9F03C50>]","Kafkaesque Koffka","3.2.7","3","0","2","1024","2","48000","-16","experiment","0","9","odd","NA","11335","161211","NA","5684","298585","295580","296582","297584","NA","NA","298585","NA","NA","161213","9335","294563","296081","297083","298085","294536","295563","294456","294536","162213","New experiment","yes","1024"
"<opensesame_plugins.lsl_start.liblsl.LSL_session object at 0x00000202D9F03C50>","1","black","[0.0, 0.0]","legacy","0","uniform","69","0","1","0","0","69","69","69","69","1","NA","69","NA","0","1","0","69","69","69","69","69","NA","69","69","1","Wed Nov 17 22:31:38 2021","-7.5","The main experiment item","yes","experiment.osexp","C:/Users/elus/Demant/+Team OMEXP - Article/ISAAR 2021/Data/experiments","no","mono","no","18","no","white","no","Next","1000","no","768","33","1","33","C:/Users/elus/Documents/RecordingLSL_maybefinal/subject-9.csv","5","[<opensesame_plugins.lsl_start.liblsl.LSL_session object at 0x00000202D9F03C50>]","Kafkaesque Koffka","3.2.7","1","0","2","1024","2","48000","-16","experiment","0","9","odd","NA","11335","161211","NA","5684","302719","299711","300713","301716","NA","NA","302719","NA","NA","161213","9335","298699","300212","301215","302219","298671","299699","298587","298671","162213","New experiment","yes","1024"
"<opensesame_plugins.lsl_start.liblsl.LSL_session object at 0x00000202D9F03C50>","1","black","[0.0, 0.0]","legacy","0","uniform","70","0","1","0","0","70","70","70","70","1","NA","70","NA","0","1","0","70","70","70","70","70","NA","70","70","1","Wed Nov 17 22:31:38 2021","-7.5","The main experiment item","yes","experiment.osexp","C:/Users/elus/Demant/+Team OMEXP - Article/ISAAR 2021/Data/experiments","no","mono","no","18","no","white","no","Next","1000","no","768","34","1","34","C:/Users/elus/Documents/RecordingLSL_maybefinal/subject-9.csv","5","[<opensesame_plugins.lsl_start.liblsl.LSL_session object at 0x00000202D9F03C50>]","Kafkaesque Koffka","3.2.7","2","0","2","1024","2","48000","-16","experiment","0","9","odd","NA","11335","161211","NA","5684","306846","303841","304843","305845","NA","NA","306846","NA","NA","161213","9335","302828","304342","305344","306346","302799","303829","302721","302799","162213","New experiment","yes","1024"
"<opensesame_plugins.lsl_start.liblsl.LSL_session object at 0x00000202D9F03C50>","0","black","[0.0, 0.0]","legacy","0","uniform","71","0","1","0","0","71","71","71","71","1","NA","71","NA","0","1","0","71","71","71","71","71","NA","71","71","1","Wed Nov 17 22:31:38 2021","-8","The main experiment item","yes","experiment.osexp","C:/Users/elus/Demant/+Team OMEXP - Article/ISAAR 2021/Data/experiments","no","mono","no","18","no","white","no","Next","1000","no","768","35","1","35","C:/Users/elus/Documents/RecordingLSL_maybefinal/subject-9.csv","5","[<opensesame_plugins.lsl_start.liblsl.LSL_session object at 0x00000202D9F03C50>]","Kafkaesque Koffka","3.2.7","3","0","2","1024","2","48000","-16","experiment","0","9","odd","NA","11335","161211","NA","5684","310975","307970","308972","309974","NA","NA","310975","NA","NA","161213","9335","306960","308471","309473","310475","306932","307960","306853","306932","162213","New experiment","yes","1024"
"<opensesame_plugins.lsl_start.liblsl.LSL_session object at 0x00000202D9F03C50>","1","black","[0.0, 0.0]","legacy","0","uniform","72","0","2","0","0","72","72","72","72","2","NA","72","NA","0","2","0","72","72","72","72","72","NA","72","72","2","Wed Nov 17 22:31:38 2021","-6","The main experiment item","yes","experiment.osexp","C:/Users/elus/Demant/+Team OMEXP - Article/ISAAR 2021/Data/experiments","no","mono","no","18","no","white","no","Next","400","no","768","0","2","0","C:/Users/elus/Documents/RecordingLSL_maybefinal/subject-9.csv","10","[<opensesame_plugins.lsl_start.liblsl.LSL_session object at 0x00000202D9F03C50>]","Kafkaesque Koffka","3.2.7","1","0","2","1024","2","48000","-16","experiment","0","9","odd","NA","11335","311067","NA","5684","316156","313151","314153","315155","NA","NA","316156","NA","NA","311069","9335","312133","313652","314654","315656","312114","313133","310977","312114","312069","New experiment","yes","1024"
"<opensesame_plugins.lsl_start.liblsl.LSL_session object at 0x00000202D9F03C50>","1","black","[0.0, 0.0]","legacy","0","uniform","73","0","2","0","0","73","73","73","73","2","NA","73","NA","0","2","0","73","73","73","73","73","NA","73","73","2","Wed Nov 17 22:31:38 2021","-6","The main experiment item","yes","experiment.osexp","C:/Users/elus/Demant/+Team OMEXP - Article/ISAAR 2021/Data/experiments","no","mono","no","18","no","white","no","Next","400","no","768","1","2","1","C:/Users/elus/Documents/RecordingLSL_maybefinal/subject-9.csv","10","[<opensesame_plugins.lsl_start.liblsl.LSL_session object at 0x00000202D9F03C50>]","Kafkaesque Koffka","3.2.7","2","0","2","1024","2","48000","-16","experiment","0","9","odd","NA","11335","311067","NA","5684","320284","317279","318281","319283","NA","NA","320284","NA","NA","311069","9335","316267","317780","318782","319784","316239","317267","316160","316239","312069","New experiment","yes","1024"
"<opensesame_plugins.lsl_start.liblsl.LSL_session object at 0x00000202D9F03C50>","1","black","[0.0, 0.0]","legacy","0","uniform","74","0","2","0","0","74","74","74","74","2","NA","74","NA","0","2","0","74","74","74","74","74","NA","74","74","2","Wed Nov 17 22:31:38 2021","-6","The main experiment item","yes","experiment.osexp","C:/Users/elus/Demant/+Team OMEXP - Article/ISAAR 2021/Data/experiments","no","mono","no","18","no","white","no","Next","400","no","768","2","2","2","C:/Users/elus/Documents/RecordingLSL_maybefinal/subject-9.csv","10","[<opensesame_plugins.lsl_start.liblsl.LSL_session object at 0x00000202D9F03C50>]","Kafkaesque Koffka","3.2.7","3","0","2","1024","2","48000","-16","experiment","0","9","odd","NA","11335","311067","NA","5684","324405","321400","322402","323404","NA","NA","324405","NA","NA","311069","9335","320391","321901","322903","323905","320364","321391","320286","320364","312069","New experiment","yes","1024"
"<opensesame_plugins.lsl_start.liblsl.LSL_session object at 0x00000202D9F03C50>","1","black","[0.0, 0.0]","legacy","0","uniform","75","0","2","0","0","75","75","75","75","2","NA","75","NA","0","2","0","75","75","75","75","75","NA","75","75","2","Wed Nov 17 22:31:38 2021","-7","The main experiment item","yes","experiment.osexp","C:/Users/elus/Demant/+Team OMEXP - Article/ISAAR 2021/Data/experiments","no","mono","no","18","no","white","no","Next","400","no","768","3","2","3","C:/Users/elus/Documents/RecordingLSL_maybefinal/subject-9.csv","10","[<opensesame_plugins.lsl_start.liblsl.LSL_session object at 0x00000202D9F03C50>]","Kafkaesque Koffka","3.2.7","1","0","2","1024","2","48000","-16","experiment","0","9","odd","NA","11335","311067","NA","5684","328554","325549","326551","327553","NA","NA","328554","NA","NA","311069","9335","324531","326050","327052","328054","324502","325531","324413","324502","312069","New experiment","yes","1024"
"<opensesame_plugins.lsl_start.liblsl.LSL_session object at 0x00000202D9F03C50>","1","black","[0.0, 0.0]","legacy","0","uniform","76","0","2","0","0","76","76","76","76","2","NA","76","NA","0","2","0","76","76","76","76","76","NA","76","76","2","Wed Nov 17 22:31:38 2021","-7","The main experiment item","yes","experiment.osexp","C:/Users/elus/Demant/+Team OMEXP - Article/ISAAR 2021/Data/experiments","no","mono","no","18","no","white","no","Next","400","no","768","4","2","4","C:/Users/elus/Documents/RecordingLSL_maybefinal/subject-9.csv","10","[<opensesame_plugins.lsl_start.liblsl.LSL_session object at 0x00000202D9F03C50>]","Kafkaesque Koffka","3.2.7","2","0","2","1024","2","48000","-16","experiment","0","9","odd","NA","11335","311067","NA","5684","332677","329672","330674","331676","NA","NA","332677","NA","NA","311069","9335","328662","330173","331175","332177","328635","329662","328556","328635","312069","New experiment","yes","1024"
"<opensesame_plugins.lsl_start.liblsl.LSL_session object at 0x00000202D9F03C50>","1","black","[0.0, 0.0]","legacy","0","uniform","77","0","2","0","0","77","77","77","77","2","NA","77","NA","0","2","0","77","77","77","77","77","NA","77","77","2","Wed Nov 17 22:31:38 2021","-7","The main experiment item","yes","experiment.osexp","C:/Users/elus/Demant/+Team OMEXP - Article/ISAAR 2021/Data/experiments","no","mono","no","18","no","white","no","Next","400","no","768","5","2","5","C:/Users/elus/Documents/RecordingLSL_maybefinal/subject-9.csv","10","[<opensesame_plugins.lsl_start.liblsl.LSL_session object at 0x00000202D9F03C50>]","Kafkaesque Koffka","3.2.7","3","0","2","1024","2","48000","-16","experiment","0","9","odd","NA","11335","311067","NA","5684","336805","333800","334802","335804","NA","NA","336805","NA","NA","311069","9335","332783","334301","335303","336305","332757","333784","332679","332757","312069","New experiment","yes","1024"
"<opensesame_plugins.lsl_start.liblsl.LSL_session object at 0x00000202D9F03C50>","1","black","[0.0, 0.0]","legacy","0","uniform","78","0","2","0","0","78","78","78","78","2","NA","78","NA","0","2","0","78","78","78","78","78","NA","78","78","2","Wed Nov 17 22:31:38 2021","-8","The main experiment item","yes","experiment.osexp","C:/Users/elus/Demant/+Team OMEXP - Article/ISAAR 2021/Data/experiments","no","mono","no","18","no","white","no","Next","400","no","768","6","2","6","C:/Users/elus/Documents/RecordingLSL_maybefinal/subject-9.csv","10","[<opensesame_plugins.lsl_start.liblsl.LSL_session object at 0x00000202D9F03C50>]","Kafkaesque Koffka","3.2.7","1","0","2","1024","2","48000","-16","experiment","0","9","odd","NA","11335","311067","NA","5684","340946","337941","338943","339945","NA","NA","340946","NA","NA","311069","9335","336926","338442","339444","340446","336895","337926","336807","336895","312069","New experiment","yes","1024"
"<opensesame_plugins.lsl_start.liblsl.LSL_session object at 0x00000202D9F03C50>","1","black","[0.0, 0.0]","legacy","0","uniform","79","0","2","0","0","79","79","79","79","2","NA","79","NA","0","2","0","79","79","79","79","79","NA","79","79","2","Wed Nov 17 22:31:38 2021","-8","The main experiment item","yes","experiment.osexp","C:/Users/elus/Demant/+Team OMEXP - Article/ISAAR 2021/Data/experiments","no","mono","no","18","no","white","no","Next","400","no","768","7","2","7","C:/Users/elus/Documents/RecordingLSL_maybefinal/subject-9.csv","10","[<opensesame_plugins.lsl_start.liblsl.LSL_session object at 0x00000202D9F03C50>]","Kafkaesque Koffka","3.2.7","2","0","2","1024","2","48000","-16","experiment","0","9","odd","NA","11335","311067","NA","5684","345076","342071","343073","344075","NA","NA","345076","NA","NA","311069","9335","341060","342572","343574","344576","341031","342060","340950","341031","312069","New experiment","yes","1024"
"<opensesame_plugins.lsl_start.liblsl.LSL_session object at 0x00000202D9F03C50>","0","black","[0.0, 0.0]","legacy","0","uniform","80","0","2","0","0","80","80","80","80","2","NA","80","NA","0","2","0","80","80","80","80","80","NA","80","80","2","Wed Nov 17 22:31:38 2021","-8","The main experiment item","yes","experiment.osexp","C:/Users/elus/Demant/+Team OMEXP - Article/ISAAR 2021/Data/experiments","no","mono","no","18","no","white","no","Next","400","no","768","8","2","8","C:/Users/elus/Documents/RecordingLSL_maybefinal/subject-9.csv","10","[<opensesame_plugins.lsl_start.liblsl.LSL_session object at 0x00000202D9F03C50>]","Kafkaesque Koffka","3.2.7","3","0","2","1024","2","48000","-16","experiment","0","9","odd","NA","11335","311067","NA","5684","349206","346201","347203","348205","NA","NA","349206","NA","NA","311069","9335","345184","346702","347704","348706","345157","346184","345078","345157","312069","New experiment","yes","1024"
"<opensesame_plugins.lsl_start.liblsl.LSL_session object at 0x00000202D9F03C50>","1","black","[0.0, 0.0]","legacy","0","uniform","81","0","2","0","0","81","81","81","81","2","NA","81","NA","0","2","0","81","81","81","81","81","NA","81","81","2","Wed Nov 17 22:31:38 2021","-7.5","The main experiment item","yes","experiment.osexp","C:/Users/elus/Demant/+Team OMEXP - Article/ISAAR 2021/Data/experiments","no","mono","no","18","no","white","no","Next","400","no","768","9","2","9","C:/Users/elus/Documents/RecordingLSL_maybefinal/subject-9.csv","10","[<opensesame_plugins.lsl_start.liblsl.LSL_session object at 0x00000202D9F03C50>]","Kafkaesque Koffka","3.2.7","1","0","2","1024","2","48000","-16","experiment","0","9","odd","NA","11335","311067","NA","5684","353344","350340","351341","352343","NA","NA","353344","NA","NA","311069","9335","349327","350841","351842","352844","349297","350327","349208","349297","312069","New experiment","yes","1024"
"<opensesame_plugins.lsl_start.liblsl.LSL_session object at 0x00000202D9F03C50>","1","black","[0.0, 0.0]","legacy","0","uniform","82","0","2","0","0","82","82","82","82","2","NA","82","NA","0","2","0","82","82","82","82","82","NA","82","82","2","Wed Nov 17 22:31:38 2021","-7.5","The main experiment item","yes","experiment.osexp","C:/Users/elus/Demant/+Team OMEXP - Article/ISAAR 2021/Data/experiments","no","mono","no","18","no","white","no","Next","400","no","768","10","2","10","C:/Users/elus/Documents/RecordingLSL_maybefinal/subject-9.csv","10","[<opensesame_plugins.lsl_start.liblsl.LSL_session object at 0x00000202D9F03C50>]","Kafkaesque Koffka","3.2.7","2","0","2","1024","2","48000","-16","experiment","0","9","odd","NA","11335","311067","NA","5684","357474","354469","355471","356473","NA","NA","357474","NA","NA","311069","9335","353451","354970","355972","356974","353424","354451","353346","353424","312069","New experiment","yes","1024"
"<opensesame_plugins.lsl_start.liblsl.LSL_session object at 0x00000202D9F03C50>","0","black","[0.0, 0.0]","legacy","0","uniform","83","0","2","0","0","83","83","83","83","2","NA","83","NA","0","2","0","83","83","83","83","83","NA","83","83","2","Wed Nov 17 22:31:38 2021","-7.5","The main experiment item","yes","experiment.osexp","C:/Users/elus/Demant/+Team OMEXP - Article/ISAAR 2021/Data/experiments","no","mono","no","18","no","white","no","Next","400","no","768","11","2","11","C:/Users/elus/Documents/RecordingLSL_maybefinal/subject-9.csv","10","[<opensesame_plugins.lsl_start.liblsl.LSL_session object at 0x00000202D9F03C50>]","Kafkaesque Koffka","3.2.7","3","0","2","1024","2","48000","-16","experiment","0","9","odd","NA","11335","311067","NA","5684","361605","358600","359602","360604","NA","NA","361605","NA","NA","311069","9335","357590","359101","360103","361105","357563","358590","357476","357563","312069","New experiment","yes","1024"
"<opensesame_plugins.lsl_start.liblsl.LSL_session object at 0x00000202D9F03C50>","1","black","[0.0, 0.0]","legacy","0","uniform","84","0","2","0","0","84","84","84","84","2","NA","84","NA","0","2","0","84","84","84","84","84","NA","84","84","2","Wed Nov 17 22:31:38 2021","-7","The main experiment item","yes","experiment.osexp","C:/Users/elus/Demant/+Team OMEXP - Article/ISAAR 2021/Data/experiments","no","mono","no","18","no","white","no","Next","400","no","768","12","2","12","C:/Users/elus/Documents/RecordingLSL_maybefinal/subject-9.csv","10","[<opensesame_plugins.lsl_start.liblsl.LSL_session object at 0x00000202D9F03C50>]","Kafkaesque Koffka","3.2.7","1","0","2","1024","2","48000","-16","experiment","0","9","odd","NA","11335","311067","NA","5684","365734","362729","363731","364733","NA","NA","365734","NA","NA","311069","9335","361714","363230","364232","365234","361687","362714","361607","361687","312069","New experiment","yes","1024"
"<opensesame_plugins.lsl_start.liblsl.LSL_session object at 0x00000202D9F03C50>","0","black","[0.0, 0.0]","legacy","0","uniform","85","0","2","0","0","85","85","85","85","2","NA","85","NA","0","2","0","85","85","85","85","85","NA","85","85","2","Wed Nov 17 22:31:38 2021","-7","The main experiment item","yes","experiment.osexp","C:/Users/elus/Demant/+Team OMEXP - Article/ISAAR 2021/Data/experiments","no","mono","no","18","no","white","no","Next","400","no","768","13","2","13","C:/Users/elus/Documents/RecordingLSL_maybefinal/subject-9.csv","10","[<opensesame_plugins.lsl_start.liblsl.LSL_session object at 0x00000202D9F03C50>]","Kafkaesque Koffka","3.2.7","2","0","2","1024","2","48000","-16","experiment","0","9","odd","NA","11335","311067","NA","5684","369866","366861","367863","368865","NA","NA","369866","NA","NA","311069","9335","365844","367362","368364","369366","365817","366844","365739","365817","312069","New experiment","yes","1024"
"<opensesame_plugins.lsl_start.liblsl.LSL_session object at 0x00000202D9F03C50>","1","black","[0.0, 0.0]","legacy","0","uniform","86","0","2","0","0","86","86","86","86","2","NA","86","NA","0","2","0","86","86","86","86","86","NA","86","86","2","Wed Nov 17 22:31:38 2021","-6.5","The main experiment item","yes","experiment.osexp","C:/Users/elus/Demant/+Team OMEXP - Article/ISAAR 2021/Data/experiments","no","mono","no","18","no","white","no","Next","400","no","768","14","2","14","C:/Users/elus/Documents/RecordingLSL_maybefinal/subject-9.csv","10","[<opensesame_plugins.lsl_start.liblsl.LSL_session object at 0x00000202D9F03C50>]","Kafkaesque Koffka","3.2.7","3","0","2","1024","2","48000","-16","experiment","0","9","odd","NA","11335","311067","NA","5684","373994","370989","371991","372993","NA","NA","373994","NA","NA","311069","9335","369979","371490","372492","373494","369948","370979","369868","369948","312069","New experiment","yes","1024"
"<opensesame_plugins.lsl_start.liblsl.LSL_session object at 0x00000202D9F03C50>","1","black","[0.0, 0.0]","legacy","0","uniform","87","0","2","0","0","87","87","87","87","2","NA","87","NA","0","2","0","87","87","87","87","87","NA","87","87","2","Wed Nov 17 22:31:38 2021","-6.5","The main experiment item","yes","experiment.osexp","C:/Users/elus/Demant/+Team OMEXP - Article/ISAAR 2021/Data/experiments","no","mono","no","18","no","white","no","Next","400","no","768","15","2","15","C:/Users/elus/Documents/RecordingLSL_maybefinal/subject-9.csv","10","[<opensesame_plugins.lsl_start.liblsl.LSL_session object at 0x00000202D9F03C50>]","Kafkaesque Koffka","3.2.7","1","0","2","1024","2","48000","-16","experiment","0","9","odd","NA","11335","311067","NA","5684","378125","375120","376122","377124","NA","NA","378125","NA","NA","311069","9335","374104","375621","376623","377625","374077","375104","373996","374077","312069","New experiment","yes","1024"
"<opensesame_plugins.lsl_start.liblsl.LSL_session object at 0x00000202D9F03C50>","1","black","[0.0, 0.0]","legacy","0","uniform","88","0","2","0","0","88","88","88","88","2","NA","88","NA","0","2","0","88","88","88","88","88","NA","88","88","2","Wed Nov 17 22:31:38 2021","-6.5","The main experiment item","yes","experiment.osexp","C:/Users/elus/Demant/+Team OMEXP - Article/ISAAR 2021/Data/experiments","no","mono","no","18","no","white","no","Next","400","no","768","16","2","16","C:/Users/elus/Documents/RecordingLSL_maybefinal/subject-9.csv","10","[<opensesame_plugins.lsl_start.liblsl.LSL_session object at 0x00000202D9F03C50>]","Kafkaesque Koffka","3.2.7","2","0","2","1024","2","48000","-16","experiment","0","9","odd","NA","11335","311067","NA","5684","382265","379260","380262","381264","NA","NA","382265","NA","NA","311069","9335","378244","379761","380763","381765","378216","379244","378141","378216","312069","New experiment","yes","1024"
"<opensesame_plugins.lsl_start.liblsl.LSL_session object at 0x00000202D9F03C50>","1","black","[0.0, 0.0]","legacy","0","uniform","89","0","2","0","0","89","89","89","89","2","NA","89","NA","0","2","0","89","89","89","89","89","NA","89","89","2","Wed Nov 17 22:31:38 2021","-7","The main experiment item","yes","experiment.osexp","C:/Users/elus/Demant/+Team OMEXP - Article/ISAAR 2021/Data/experiments","no","mono","no","18","no","white","no","Next","400","no","768","17","2","17","C:/Users/elus/Documents/RecordingLSL_maybefinal/subject-9.csv","10","[<opensesame_plugins.lsl_start.liblsl.LSL_session object at 0x00000202D9F03C50>]","Kafkaesque Koffka","3.2.7","3","0","2","1024","2","48000","-16","experiment","0","9","odd","NA","11335","311067","NA","5684","386387","383382","384384","385386","NA","NA","386387","NA","NA","311069","9335","382372","383883","384885","385887","382347","383373","382267","382347","312069","New experiment","yes","1024"
"<opensesame_plugins.lsl_start.liblsl.LSL_session object at 0x00000202D9F03C50>","1","black","[0.0, 0.0]","legacy","0","uniform","90","0","2","0","0","90","90","90","90","2","NA","90","NA","0","2","0","90","90","90","90","90","NA","90","90","2","Wed Nov 17 22:31:38 2021","-7","The main experiment item","yes","experiment.osexp","C:/Users/elus/Demant/+Team OMEXP - Article/ISAAR 2021/Data/experiments","no","mono","no","18","no","white","no","Next","400","no","768","18","2","18","C:/Users/elus/Documents/RecordingLSL_maybefinal/subject-9.csv","10","[<opensesame_plugins.lsl_start.liblsl.LSL_session object at 0x00000202D9F03C50>]","Kafkaesque Koffka","3.2.7","1","0","2","1024","2","48000","-16","experiment","0","9","odd","NA","11335","311067","NA","5684","390514","387509","388511","389513","NA","NA","390514","NA","NA","311069","9335","386497","388010","389012","390014","386467","387497","386389","386467","312069","New experiment","yes","1024"
"<opensesame_plugins.lsl_start.liblsl.LSL_session object at 0x00000202D9F03C50>","1","black","[0.0, 0.0]","legacy","0","uniform","91","0","2","0","0","91","91","91","91","2","NA","91","NA","0","2","0","91","91","91","91","91","NA","91","91","2","Wed Nov 17 22:31:38 2021","-7","The main experiment item","yes","experiment.osexp","C:/Users/elus/Demant/+Team OMEXP - Article/ISAAR 2021/Data/experiments","no","mono","no","18","no","white","no","Next","400","no","768","19","2","19","C:/Users/elus/Documents/RecordingLSL_maybefinal/subject-9.csv","10","[<opensesame_plugins.lsl_start.liblsl.LSL_session object at 0x00000202D9F03C50>]","Kafkaesque Koffka","3.2.7","2","0","2","1024","2","48000","-16","experiment","0","9","odd","NA","11335","311067","NA","5684","394635","391630","392632","393634","NA","NA","394635","NA","NA","311069","9335","390621","392131","393133","394135","390595","391621","390516","390594","312069","New experiment","yes","1024"
"<opensesame_plugins.lsl_start.liblsl.LSL_session object at 0x00000202D9F03C50>","1","black","[0.0, 0.0]","legacy","0","uniform","92","0","2","0","0","92","92","92","92","2","NA","92","NA","0","2","0","92","92","92","92","92","NA","92","92","2","Wed Nov 17 22:31:38 2021","-7.5","The main experiment item","yes","experiment.osexp","C:/Users/elus/Demant/+Team OMEXP - Article/ISAAR 2021/Data/experiments","no","mono","no","18","no","white","no","Next","400","no","768","20","2","20","C:/Users/elus/Documents/RecordingLSL_maybefinal/subject-9.csv","10","[<opensesame_plugins.lsl_start.liblsl.LSL_session object at 0x00000202D9F03C50>]","Kafkaesque Koffka","3.2.7","3","0","2","1024","2","48000","-16","experiment","0","9","odd","NA","11335","311067","NA","5684","398766","395761","396763","397765","NA","NA","398766","NA","NA","311069","9335","394744","396262","397264","398266","394714","395744","394637","394714","312069","New experiment","yes","1024"
"<opensesame_plugins.lsl_start.liblsl.LSL_session object at 0x00000202D9F03C50>","1","black","[0.0, 0.0]","legacy","0","uniform","93","0","2","0","0","93","93","93","93","2","NA","93","NA","0","2","0","93","93","93","93","93","NA","93","93","2","Wed Nov 17 22:31:38 2021","-7.5","The main experiment item","yes","experiment.osexp","C:/Users/elus/Demant/+Team OMEXP - Article/ISAAR 2021/Data/experiments","no","mono","no","18","no","white","no","Next","400","no","768","21","2","21","C:/Users/elus/Documents/RecordingLSL_maybefinal/subject-9.csv","10","[<opensesame_plugins.lsl_start.liblsl.LSL_session object at 0x00000202D9F03C50>]","Kafkaesque Koffka","3.2.7","1","0","2","1024","2","48000","-16","experiment","0","9","odd","NA","11335","311067","NA","5684","402895","399890","400892","401894","NA","NA","402895","NA","NA","311069","9335","398874","400391","401393","402395","398848","399875","398768","398848","312069","New experiment","yes","1024"
"<opensesame_plugins.lsl_start.liblsl.LSL_session object at 0x00000202D9F03C50>","1","black","[0.0, 0.0]","legacy","0","uniform","94","0","2","0","0","94","94","94","94","2","NA","94","NA","0","2","0","94","94","94","94","94","NA","94","94","2","Wed Nov 17 22:31:38 2021","-7.5","The main experiment item","yes","experiment.osexp","C:/Users/elus/Demant/+Team OMEXP - Article/ISAAR 2021/Data/experiments","no","mono","no","18","no","white","no","Next","400","no","768","22","2","22","C:/Users/elus/Documents/RecordingLSL_maybefinal/subject-9.csv","10","[<opensesame_plugins.lsl_start.liblsl.LSL_session object at 0x00000202D9F03C50>]","Kafkaesque Koffka","3.2.7","2","0","2","1024","2","48000","-16","experiment","0","9","odd","NA","11335","311067","NA","5684","407024","404019","405021","406023","NA","NA","407024","NA","NA","311069","9335","403006","404520","405522","406524","402978","404006","402899","402978","312069","New experiment","yes","1024"
"<opensesame_plugins.lsl_start.liblsl.LSL_session object at 0x00000202D9F03C50>","1","black","[0.0, 0.0]","legacy","0","uniform","95","0","2","0","0","95","95","95","95","2","NA","95","NA","0","2","0","95","95","95","95","95","NA","95","95","2","Wed Nov 17 22:31:38 2021","-8","The main experiment item","yes","experiment.osexp","C:/Users/elus/Demant/+Team OMEXP - Article/ISAAR 2021/Data/experiments","no","mono","no","18","no","white","no","Next","400","no","768","23","2","23","C:/Users/elus/Documents/RecordingLSL_maybefinal/subject-9.csv","10","[<opensesame_plugins.lsl_start.liblsl.LSL_session object at 0x00000202D9F03C50>]","Kafkaesque Koffka","3.2.7","3","0","2","1024","2","48000","-16","experiment","0","9","odd","NA","11335","311067","NA","5684","411145","408140","409142","410144","NA","NA","411145","NA","NA","311069","9335","407131","408641","409643","410645","407103","408131","407026","407103","312069","New experiment","yes","1024"
"<opensesame_plugins.lsl_start.liblsl.LSL_session object at 0x00000202D9F03C50>","0","black","[0.0, 0.0]","legacy","0","uniform","96","0","2","0","0","96","96","96","96","2","NA","96","NA","0","2","0","96","96","96","96","96","NA","96","96","2","Wed Nov 17 22:31:38 2021","-8","The main experiment item","yes","experiment.osexp","C:/Users/elus/Demant/+Team OMEXP - Article/ISAAR 2021/Data/experiments","no","mono","no","18","no","white","no","Next","400","no","768","24","2","24","C:/Users/elus/Documents/RecordingLSL_maybefinal/subject-9.csv","10","[<opensesame_plugins.lsl_start.liblsl.LSL_session object at 0x00000202D9F03C50>]","Kafkaesque Koffka","3.2.7","1","0","2","1024","2","48000","-16","experiment","0","9","odd","NA","11335","311067","NA","5684","415274","412269","413271","414273","NA","NA","415274","NA","NA","311069","9335","411256","412770","413772","414774","411227","412256","411147","411227","312069","New experiment","yes","1024"
"<opensesame_plugins.lsl_start.liblsl.LSL_session object at 0x00000202D9F03C50>","0","black","[0.0, 0.0]","legacy","0","uniform","97","0","2","0","0","97","97","97","97","2","NA","97","NA","0","2","0","97","97","97","97","97","NA","97","97","2","Wed Nov 17 22:31:38 2021","-7.5","The main experiment item","yes","experiment.osexp","C:/Users/elus/Demant/+Team OMEXP - Article/ISAAR 2021/Data/experiments","no","mono","no","18","no","white","no","Next","400","no","768","25","2","25","C:/Users/elus/Documents/RecordingLSL_maybefinal/subject-9.csv","10","[<opensesame_plugins.lsl_start.liblsl.LSL_session object at 0x00000202D9F03C50>]","Kafkaesque Koffka","3.2.7","2","0","2","1024","2","48000","-16","experiment","0","9","odd","NA","11335","311067","NA","5684","419396","416390","417393","418395","NA","NA","419396","NA","NA","311069","9335","415380","416892","417894","418896","415354","416380","415276","415354","312069","New experiment","yes","1024"
"<opensesame_plugins.lsl_start.liblsl.LSL_session object at 0x00000202D9F03C50>","1","black","[0.0, 0.0]","legacy","0","uniform","98","0","2","0","0","98","98","98","98","2","NA","98","NA","0","2","0","98","98","98","98","98","NA","98","98","2","Wed Nov 17 22:31:38 2021","-7","The main experiment item","yes","experiment.osexp","C:/Users/elus/Demant/+Team OMEXP - Article/ISAAR 2021/Data/experiments","no","mono","no","18","no","white","no","Next","400","no","768","26","2","26","C:/Users/elus/Documents/RecordingLSL_maybefinal/subject-9.csv","10","[<opensesame_plugins.lsl_start.liblsl.LSL_session object at 0x00000202D9F03C50>]","Kafkaesque Koffka","3.2.7","3","0","2","1024","2","48000","-16","experiment","0","9","odd","NA","11335","311067","NA","5684","423524","420519","421521","422523","NA","NA","423524","NA","NA","311069","9335","419506","421020","422022","423024","419479","420506","419400","419479","312069","New experiment","yes","1024"
"<opensesame_plugins.lsl_start.liblsl.LSL_session object at 0x00000202D9F03C50>","1","black","[0.0, 0.0]","legacy","0","uniform","99","0","2","0","0","99","99","99","99","2","NA","99","NA","0","2","0","99","99","99","99","99","NA","99","99","2","Wed Nov 17 22:31:38 2021","-7","The main experiment item","yes","experiment.osexp","C:/Users/elus/Demant/+Team OMEXP - Article/ISAAR 2021/Data/experiments","no","mono","no","18","no","white","no","Next","400","no","768","27","2","27","C:/Users/elus/Documents/RecordingLSL_maybefinal/subject-9.csv","10","[<opensesame_plugins.lsl_start.liblsl.LSL_session object at 0x00000202D9F03C50>]","Kafkaesque Koffka","3.2.7","1","0","2","1024","2","48000","-16","experiment","0","9","odd","NA","11335","311067","NA","5684","427645","424640","425642","426644","NA","NA","427645","NA","NA","311069","9335","423630","425141","426143","427145","423602","424630","423526","423602","312069","New experiment","yes","1024"
"<opensesame_plugins.lsl_start.liblsl.LSL_session object at 0x00000202D9F03C50>","1","black","[0.0, 0.0]","legacy","0","uniform","100","0","2","0","0","100","100","100","100","2","NA","100","NA","0","2","0","100","100","100","100","100","NA","100","100","2","Wed Nov 17 22:31:38 2021","-7","The main experiment item","yes","experiment.osexp","C:/Users/elus/Demant/+Team OMEXP - Article/ISAAR 2021/Data/experiments","no","mono","no","18","no","white","no","Next","400","no","768","28","2","28","C:/Users/elus/Documents/RecordingLSL_maybefinal/subject-9.csv","10","[<opensesame_plugins.lsl_start.liblsl.LSL_session object at 0x00000202D9F03C50>]","Kafkaesque Koffka","3.2.7","2","0","2","1024","2","48000","-16","experiment","0","9","odd","NA","11335","311067","NA","5684","431775","428770","429772","430774","NA","NA","431775","NA","NA","311069","9335","427757","429271","430273","431275","427731","428757","427653","427731","312069","New experiment","yes","1024"
"<opensesame_plugins.lsl_start.liblsl.LSL_session object at 0x00000202D9F03C50>","1","black","[0.0, 0.0]","legacy","0","uniform","101","0","2","0","0","101","101","101","101","2","NA","101","NA","0","2","0","101","101","101","101","101","NA","101","101","2","Wed Nov 17 22:31:38 2021","-7.5","The main experiment item","yes","experiment.osexp","C:/Users/elus/Demant/+Team OMEXP - Article/ISAAR 2021/Data/experiments","no","mono","no","18","no","white","no","Next","400","no","768","29","2","29","C:/Users/elus/Documents/RecordingLSL_maybefinal/subject-9.csv","10","[<opensesame_plugins.lsl_start.liblsl.LSL_session object at 0x00000202D9F03C50>]","Kafkaesque Koffka","3.2.7","3","0","2","1024","2","48000","-16","experiment","0","9","odd","NA","11335","311067","NA","5684","435906","432901","433903","434905","NA","NA","435906","NA","NA","311069","9335","431882","433402","434404","435406","431855","432882","431777","431855","312069","New experiment","yes","1024"
"<opensesame_plugins.lsl_start.liblsl.LSL_session object at 0x00000202D9F03C50>","1","black","[0.0, 0.0]","legacy","0","uniform","102","0","2","0","0","102","102","102","102","2","NA","102","NA","0","2","0","102","102","102","102","102","NA","102","102","2","Wed Nov 17 22:31:38 2021","-7.5","The main experiment item","yes","experiment.osexp","C:/Users/elus/Demant/+Team OMEXP - Article/ISAAR 2021/Data/experiments","no","mono","no","18","no","white","no","Next","400","no","768","30","2","30","C:/Users/elus/Documents/RecordingLSL_maybefinal/subject-9.csv","10","[<opensesame_plugins.lsl_start.liblsl.LSL_session object at 0x00000202D9F03C50>]","Kafkaesque Koffka","3.2.7","1","0","2","1024","2","48000","-16","experiment","0","9","odd","NA","11335","311067","NA","5684","440035","437030","438032","439034","NA","NA","440035","NA","NA","311069","9335","436015","437531","438533","439535","435988","437015","435910","435988","312069","New experiment","yes","1024"
